{
  "resourceType": "Bundle",
  "id": "bundleReferralExample01",
  "meta": {
    "profile": [
      "http://jpfhir.jp/fhir/eReferral/StructureDefinition/JP_Bundle_eReferral"
    ]
  },
  "identifier": {
    "system": "http://jpfhir.jp/fhir/core/IdSystem/documentInstance-identifier",
    "value": "123456"
  },
  "type": "document",
  "timestamp": "2021-11-26T10:00:00+09:00",
  "entry": [
    {
      "fullUrl": "urn:uuid:6f0910bd-b3fb-4a76-a37f-48874f15e278",
      "resource": {
        "resourceType": "Composition",
        "id": "compositionReferralExample01Inline",
        "meta": {
          "profile": [
            "http://jpfhir.jp/fhir/eReferral/StructureDefinition/JP_Composition_eReferral"
          ]
        },
        "extension": [
          {
            "url": "http://hl7.org/fhir/StructureDefinition/composition-clinicaldocument-versionNumber",
            "valueString": "ARGcode"
          }
        ],
        "identifier": {
          "system": "http://jpfhir.jp/fhir/core/IdSystem/resourceInstance-identifier",
          "value": "ARGcode"
        },
        "status": "final",
        "type": {
          "coding": [
            {
              "code": "57133-1",
              "system": "http://jpfhir.jp/fhir/Common/CodeSystem/doc-typecodes",
              "display": "診療情報提供書"
            }
          ]
        },
        "category": [
          {
            "coding": [
              {
                "code": "57133-1",
                "system": "http://jpfhir.jp/fhir/Common/CodeSystem/doc-typecodes",
                "display": "診療情報提供書"
              }
            ]
          }
        ],
        "subject": {
          "reference": "urn:uuid:714d7ead-c92b-4342-87ba-57cd89a0c363",
          "type": "Patient",
          "display": "患者リソースPatient"
        },
        "encounter": {
          "reference": "urn:uuid:666cacd1-c1d4-4fdd-bea4-0409629f8027",
          "type": "Encounter",
          "display": "受診Encounterリソース"
        },
        "date": "2020-08-21T12:12:20+09:00",
        "author": [
          {
            "reference": "urn:uuid:d99cbf9b-fbcf-4eab-9c72-8804cebe85ec",
            "type": "Practitioner",
            "display": "紹介状作成者PractitionerRoleリソース"
          },
          {
            "reference": "urn:uuid:9d9fc0bd-2839-47d8-8b1a-0d145df9a4ae",
            "type": "Organization",
            "display": "紹介状作成機関Organizationリソース"
          }
        ],
        "title": "診療情報提供書",
        "custodian": {
          "reference": "urn:uuid:9d9fc0bd-2839-47d8-8b1a-0d145df9a4ae",
          "type": "Organization",
          "display": "紹介状交付責任機関Organizationリソース"
        },
        "event": [
          {
            "code": [
              {
                "text": "診療情報提供書発行"
              }
            ],
            "period": {
              "start": "2020-08-21"
            }
          }
        ],
        "section": [
          {
            "title": "紹介先情報",
            "code": {
              "coding": [
                {
                  "code": "910",
                  "system": "http://jpfhir.jp/fhir/eReferral/CodeSystem/document-section",
                  "display": "紹介先情報セクション"
                }
              ]
            },
            "text": {
              "status": "additional",
              "div": "<div xmlns=\"http://www.w3.org/1999/xhtml\">東京第一テスト病院</div>"
            },
            "entry": [
              {
                "reference": "urn:uuid:b76b3456-68ad-4759-9c20-e07e09df52c9",
                "type": "Organization",
                "display": "紹介先医療機関"
              },
              {
                "reference": "urn:uuid:595a7cae-3894-449f-94ff-6ee989825c41",
                "type": "Organization",
                "display": "紹介先診療科"
              },
              {
                "reference": "urn:uuid:c4b0c04f-9331-4fe1-9afb-932afd8b6b83",
                "type": "Practitioner",
                "display": "紹介先医師"
              }
            ]
          },
          {
            "title": "紹介元情報",
            "code": {
              "coding": [
                {
                  "code": "920",
                  "system": "http://jpfhir.jp/fhir/eReferral/CodeSystem/document-section",
                  "display": "紹介元情報セクション"
                }
              ]
            },
            "text": {
              "status": "additional",
              "div": "<div xmlns=\"http://www.w3.org/1999/xhtml\">港診療所</div>"
            },
            "entry": [
              {
                "reference": "urn:uuid:9d9fc0bd-2839-47d8-8b1a-0d145df9a4ae",
                "type": "Organization",
                "display": "紹介元医療機関"
              },
              {
                "reference": "urn:uuid:4732cd90-71ef-4f8a-8549-7027fe0b4236",
                "type": "Organization",
                "display": "紹介元診療科"
              },
              {
                "reference": "urn:uuid:d99cbf9b-fbcf-4eab-9c72-8804cebe85ec",
                "type": "Practitioner",
                "display": "紹介元医師"
              }
            ]
          },
          {
            "title": "構造情報",
            "code": {
              "coding": [
                {
                  "code": "300",
                  "system": "http://jpfhir.jp/fhir/eReferral/CodeSystem/document-section",
                  "display": "構造情報セクション"
                }
              ]
            },
            "section": [
              {
                "title": "紹介目的",
                "code": {
                  "coding": [
                    {
                      "code": "950",
                      "system": "http://jpfhir.jp/fhir/eReferral/CodeSystem/document-section",
                      "display": "紹介目的セクション"
                    }
                  ]
                },
                "text": {
                  "status": "additional",
                  "div": "<div xmlns=\"http://www.w3.org/1999/xhtml\">腹痛精査お願いします。</div>"
                },
                "entry": [
                  {
                    "reference": "urn:uuid:b338fe1f-7464-45be-a2e9-7c461db14591",
                    "type": "Encounter",
                    "display": "紹介目的"
                  }
                ]
              },
              {
                "title": "傷病名・主訴",
                "code": {
                  "coding": [
                    {
                      "code": "340",
                      "system": "http://jpfhir.jp/fhir/eReferral/CodeSystem/document-section",
                      "display": "傷病名・主訴セクション"
                    }
                  ]
                },
                "text": {
                  "status": "additional",
                  "div": "<div xmlns=\"http://www.w3.org/1999/xhtml\">上腹部痛、腰痛</div>"
                },
                "entry": [
                  {
                    "reference": "urn:uuid:b9f0f06c-177b-405a-a383-6f01a548dd16",
                    "type": "Condition",
                    "display": "傷病名・主訴"
                  },
                  {
                    "reference": "urn:uuid:e8358718-ba6e-4aab-bddd-67d323eb9f44",
                    "type": "Condition",
                    "display": "傷病名・主訴"
                  }
                ]
              },
              {
                "title": "現病歴",
                "code": {
                  "coding": [
                    {
                      "code": "360",
                      "system": "http://jpfhir.jp/fhir/eReferral/CodeSystem/document-section",
                      "display": "現病歴セクション"
                    }
                  ]
                },
                "text": {
                  "status": "additional",
                  "div": "<div xmlns=\"http://www.w3.org/1999/xhtml\">２０２２年６月上旬から夜食後に時々上腹部痛があり、だんだんひどくなっている。他に目立った症状なし。</div>"
                },
                "entry": [
                  {
                    "reference": "urn:uuid:7e267642-6662-4f6a-821e-1a743140fe49",
                    "type": "Condition",
                    "display": "現病歴"
                  }
                ]
              },
              {
                "title": "既往歴",
                "code": {
                  "coding": [
                    {
                      "code": "370",
                      "system": "http://jpfhir.jp/fhir/eReferral/CodeSystem/document-section",
                      "display": "既往歴セクション"
                    }
                  ]
                },
                "text": {
                  "status": "additional",
                  "div": "<div xmlns=\"http://www.w3.org/1999/xhtml\">2018年　狭心症　２ヶ月治療で軽快。2019年　交通事故で左前腕骨折　３ヶ月ギプス固定。</div>"
                },
                "entry": [
                  {
                    "reference": "urn:uuid:54764f12-6227-4b17-bddc-ae289119920d",
                    "type": "Condition",
                    "display": "既往歴"
                  },
                  {
                    "reference": "urn:uuid:9d2f9a9d-9dab-478c-a0ec-6dddbf07d3fb",
                    "type": "Condition",
                    "display": "既往歴"
                  }
                ]
              },
              {
                "title": "アレルギー・不耐性反応",
                "code": {
                  "coding": [
                    {
                      "code": "510",
                      "system": "http://jpfhir.jp/fhir/eReferral/CodeSystem/document-section",
                      "display": "アレルギー・不耐性反応セクション"
                    }
                  ]
                },
                "text": {
                  "status": "additional",
                  "div": "<div xmlns=\"http://www.w3.org/1999/xhtml\">サバ　キーウイ</div>"
                },
                "entry": [
                  {
                    "reference": "urn:uuid:ff9adfca-bf93-413a-8671-dd6de2a5654f",
                    "type": "AllergyIntolerance",
                    "display": "アレルギー・不耐性反応"
                  },
                  {
                    "reference": "urn:uuid:a304f316-e47a-4240-ae70-34da3e75719e",
                    "type": "AllergyIntolerance",
                    "display": "アレルギー・不耐性反応"
                  }
                ]
              },
              {
                "title": "家族歴",
                "code": {
                  "coding": [
                    {
                      "code": "550",
                      "system": "http://jpfhir.jp/fhir/eReferral/CodeSystem/document-section",
                      "display": "家族歴セクション"
                    }
                  ]
                },
                "text": {
                  "status": "additional",
                  "div": "<div xmlns=\"http://www.w3.org/1999/xhtml\">母　胃がん</div>"
                }
              },
              {
                "title": "身体所見",
                "code": {
                  "coding": [
                    {
                      "code": "610",
                      "system": "http://jpfhir.jp/fhir/eReferral/CodeSystem/document-section",
                      "display": "身体所見セクション"
                    }
                  ]
                },
                "text": {
                  "status": "additional",
                  "div": "<div xmlns=\"http://www.w3.org/1999/xhtml\">腹部所見：上腹部圧痛あり、その他特に所見なし。</div>"
                },
                "entry": [
                  {
                    "reference": "urn:uuid:3758edce-3fd0-414a-be35-226a8742a6bb",
                    "type": "Observation",
                    "display": "身体所見"
                  }
                ]
              },
              {
                "title": "投薬指示",
                "code": {
                  "coding": [
                    {
                      "code": "430",
                      "system": "http://jpfhir.jp/fhir/eReferral/CodeSystem/document-section",
                      "display": "投薬指示セクション"
                    }
                  ]
                },
                "entry": [
                  {
                    "reference": "urn:uuid:2318e40f-3eac-4d98-949b-b82346ff47cc",
                    "type": "MedicationRequest",
                    "display": "投薬指示"
                  },
                  {
                    "reference": "urn:uuid:8f48f39e-fef0-4c22-becb-df12f65f55c5",
                    "type": "MedicationRequest",
                    "display": "投薬指示"
                  }
                ]
              },
              {
                "title": "感染症情報",
                "code": {
                  "coding": [
                    {
                      "code": "520",
                      "system": "http://jpfhir.jp/fhir/eReferral/CodeSystem/document-section",
                      "display": "感染症情報セクション"
                    }
                  ]
                },
                "text": {
                  "status": "additional",
                  "div": "<div xmlns=\"http://www.w3.org/1999/xhtml\">特になし</div>"
                }
              },
              {
                "title": "臨床経過",
                "code": {
                  "coding": [
                    {
                      "code": "330",
                      "system": "http://jpfhir.jp/fhir/eReferral/CodeSystem/document-section",
                      "display": "臨床経過セクション"
                    }
                  ]
                },
                "text": {
                  "status": "additional",
                  "div": "<div xmlns=\"http://www.w3.org/1999/xhtml\">添付参照</div>"
                },
                "entry": [
                  {
                    "reference": "urn:uuid:1d1a8866-2351-4c3b-890c-67e6b639d364",
                    "type": "DocumentReference",
                    "display": "臨床経過"
                  }
                ]
              }
            ]
          }
        ]
      }
    },
    {
      "fullUrl": "urn:uuid:714d7ead-c92b-4342-87ba-57cd89a0c363",
      "resource": {
        "resourceType": "Patient",
        "id": "jppatientExample01Inline",
        "meta": {
          "profile": [
            "http://jpfhir.jp/fhir/core/StructureDefinition/JP_Patient"
          ]
        },
        "identifier": [
          {
            "system": "urn:oid:1.2.392.200119.6.102.11234567890",
            "value": "12345"
          }
        ],
        "active": true,
        "name": [
          {
            "extension": [
              {
                "url": "http://hl7.org/fhir/StructureDefinition/iso21090-EN-representation",
                "valueCode": "IDE"
              }
            ],
            "use": "official",
            "text": "田中　太郎",
            "family": "田中",
            "given": [
              "太郎"
            ]
          },
          {
            "extension": [
              {
                "url": "http://hl7.org/fhir/StructureDefinition/iso21090-EN-representation",
                "valueCode": "SYL"
              }
            ],
            "use": "official",
            "text": "タナカ　タロウ",
            "family": "タナカ",
            "given": [
              "タロウ"
            ]
          }
        ],
        "telecom": [
          {
            "system": "phone",
            "value": "03-1234-5678",
            "use": "home"
          }
        ],
        "gender": "male",
        "birthDate": "1955-05-04",
        "address": [
          {
            "text": "神奈川県横浜市港区１－２－３",
            "postalCode": "123-4567",
            "country": "JP"
          }
        ]
      }
    },
    {
      "fullUrl": "urn:uuid:666cacd1-c1d4-4fdd-bea4-0409629f8027",
      "resource": {
        "resourceType": "Encounter",
        "id": "encounterReferralExample01Inline",
        "meta": {
          "profile": [
            "http://jpfhir.jp/fhir/core/StructureDefinition/JP_Encounter",
            "http://jpfhir.jp/fhir/eClinicalSummary/StructureDefinition/JP_Encounter_eClinicalSummary"
          ]
        },
        "identifier": [
          {
            "system": "http://jpfhir.jp/fhir/core/IdSystem/resourceInstance-identifier",
            "value": "192844"
          }
        ],
        "status": "finished",
        "class": {
          "system": "http://terminology.hl7.org/CodeSystem/v3-ActCode",
          "code": "AMB",
          "display": "外来"
        },
        "classHistory": [
          {
            "class": {
              "system": "http://terminology.hl7.org/CodeSystem/v3-ActCode",
              "code": "AMB",
              "display": "外来"
            },
            "period": {
              "start": "2020-08-20"
            }
          }
        ]
      }
    },
    {
      "fullUrl": "urn:uuid:d99cbf9b-fbcf-4eab-9c72-8804cebe85ec",
      "resource": {
        "resourceType": "Practitioner",
        "id": "referralFromPractitionerExample01Inline",
        "meta": {
          "profile": [
            "http://jpfhir.jp/fhir/core/StructureDefinition/JP_Practitioner",
            "http://jpfhir.jp/fhir/eClinicalSummary/StructureDefinition/JP_Practitioner_eClinicalSummary"
          ]
        },
        "name": [
          {
            "extension": [
              {
                "url": "http://hl7.org/fhir/StructureDefinition/iso21090-EN-representation",
                "valueCode": "IDE"
              }
            ],
            "use": "official",
            "text": "大河内　勘三郎",
            "family": "大河内",
            "given": [
              "勘三郎"
            ]
          },
          {
            "extension": [
              {
                "url": "http://hl7.org/fhir/StructureDefinition/iso21090-EN-representation",
                "valueCode": "SYL"
              }
            ],
            "use": "official",
            "text": "オオコウチ　カンザブロウ",
            "family": "オオコウチ",
            "given": [
              "カンザブロウ"
            ]
          }
        ]
      }
    },
    {
      "fullUrl": "urn:uuid:c4b0c04f-9331-4fe1-9afb-932afd8b6b83",
      "resource": {
        "resourceType": "Practitioner",
        "id": "referralToPractitionerExample01Inline",
        "meta": {
          "profile": [
            "http://jpfhir.jp/fhir/core/StructureDefinition/JP_Practitioner",
            "http://jpfhir.jp/fhir/eClinicalSummary/StructureDefinition/JP_Practitioner_eClinicalSummary"
          ]
        },
        "name": [
          {
            "extension": [
              {
                "url": "http://hl7.org/fhir/StructureDefinition/iso21090-EN-representation",
                "valueCode": "IDE"
              }
            ],
            "use": "official",
            "text": "野口　英世丸",
            "family": "野口",
            "given": [
              "英世丸"
            ]
          },
          {
            "extension": [
              {
                "url": "http://hl7.org/fhir/StructureDefinition/iso21090-EN-representation",
                "valueCode": "SYL"
              }
            ],
            "use": "official",
            "text": "ノグチ　ヒデヨマル",
            "family": "ノグチ",
            "given": [
              "ヒデヨマル"
            ]
          }
        ]
      }
    },
    {
      "fullUrl": "urn:uuid:9d9fc0bd-2839-47d8-8b1a-0d145df9a4ae",
      "resource": {
        "resourceType": "Organization",
        "id": "referralFromOrganizationExample01Inline",
        "meta": {
          "profile": [
            "http://jpfhir.jp/fhir/core/StructureDefinition/JP_Organization",
            "http://jpfhir.jp/fhir/eClinicalSummary/StructureDefinition/JP_Organization_eClinicalSummary"
          ]
        },
        "extension": [
          {
            "url": "http://jpfhir.jp/fhir/core/Extension/StructureDefinition/JP_Organization_PrefectureNo",
            "valueCoding": {
              "system": "urn:oid:1.2.392.100495.20.3.21",
              "code": "13"
            }
          },
          {
            "url": "http://jpfhir.jp/fhir/core/Extension/StructureDefinition/JP_Organization_InsuranceOrganizationCategory",
            "valueCoding": {
              "system": "urn:oid:1.2.392.100495.20.3.22",
              "code": "1"
            }
          },
          {
            "url": "http://jpfhir.jp/fhir/core/Extension/StructureDefinition/JP_Organization_InsuranceOrganizationNo",
            "valueIdentifier": {
              "system": "urn:oid:1.2.392.100495.20.3.23",
              "value": "9876543"
            }
          }
        ],
        "identifier": [
          {
            "system": "http://jpfhir.jp/fhir/core/IdSystem/insurance-medical-institution-no",
            "value": "1319876543"
          }
        ],
        "type": [
          {
            "coding": [
              {
                "system": "http://terminology.hl7.org/CodeSystem/organization-type",
                "code": "prov"
              }
            ]
          }
        ],
        "name": "港診療所",
        "telecom": [
          {
            "system": "phone",
            "value": "03-9876-5432"
          }
        ],
        "address": [
          {
            "text": "東京都港区新橋１−２−３",
            "postalCode": "106-9900",
            "country": "JP"
          }
        ]
      }
    },
    {
      "fullUrl": "urn:uuid:b76b3456-68ad-4759-9c20-e07e09df52c9",
      "resource": {
        "resourceType": "Organization",
        "id": "referralToOrganizationExample01Inline",
        "meta": {
          "profile": [
            "http://jpfhir.jp/fhir/core/StructureDefinition/JP_Organization",
            "http://jpfhir.jp/fhir/eClinicalSummary/StructureDefinition/JP_Organization_eClinicalSummary"
          ]
        },
        "extension": [
          {
            "url": "http://jpfhir.jp/fhir/core/Extension/StructureDefinition/JP_Organization_PrefectureNo",
            "valueCoding": {
              "system": "urn:oid:1.2.392.100495.20.3.21",
              "code": "13"
            }
          },
          {
            "url": "http://jpfhir.jp/fhir/core/Extension/StructureDefinition/JP_Organization_InsuranceOrganizationCategory",
            "valueCoding": {
              "system": "urn:oid:1.2.392.100495.20.3.22",
              "code": "1"
            }
          },
          {
            "url": "http://jpfhir.jp/fhir/core/Extension/StructureDefinition/JP_Organization_InsuranceOrganizationNo",
            "valueIdentifier": {
              "system": "urn:oid:1.2.392.100495.20.3.23",
              "value": "1234567"
            }
          }
        ],
        "identifier": [
          {
            "system": "http://jpfhir.jp/fhir/core/IdSystem/insurance-medical-institution-no",
            "value": "1311234567"
          }
        ],
        "type": [
          {
            "coding": [
              {
                "system": "http://terminology.hl7.org/CodeSystem/organization-type",
                "code": "prov"
              }
            ]
          }
        ],
        "name": "東京第一テスト病院",
        "telecom": [
          {
            "system": "phone",
            "value": "03-1234-5678"
          }
        ],
        "address": [
          {
            "text": "東京都文京区文京町１−２−３",
            "postalCode": "113-0001",
            "country": "JP"
          }
        ]
      }
    },
    {
      "fullUrl": "urn:uuid:595a7cae-3894-449f-94ff-6ee989825c41",
      "resource": {
        "resourceType": "Organization",
        "id": "referralToOrganizationDeptExample01Inline",
        "meta": {
          "profile": [
            "http://jpfhir.jp/fhir/core/StructureDefinition/JP_Organization",
            "http://jpfhir.jp/fhir/eClinicalSummary/StructureDefinition/JP_Organization_eClinicalSummary_department"
          ]
        },
        "type": [
          {
            "coding": [
              {
                "system": "http://terminology.hl7.org/CodeSystem/organization-type",
                "code": "dept"
              }
            ]
          },
          {
            "coding": [
              {
                "system": "urn:oid:1.2.392.100495.20.2.51",
                "code": "03"
              }
            ]
          }
        ],
        "name": "循環器内科",
        "partOf": {
          "reference": "urn:uuid:595a7cae-3894-449f-94ff-6ee989825c41"
        }
      }
    },
    {
      "fullUrl": "urn:uuid:4732cd90-71ef-4f8a-8549-7027fe0b4236",
      "resource": {
        "resourceType": "Organization",
        "id": "referralFromOrganizationDeptExample01Inline",
        "meta": {
          "profile": [
            "http://jpfhir.jp/fhir/core/StructureDefinition/JP_Organization",
            "http://jpfhir.jp/fhir/eClinicalSummary/StructureDefinition/JP_Organization_eClinicalSummary_department"
          ]
        },
        "type": [
          {
            "coding": [
              {
                "system": "http://terminology.hl7.org/CodeSystem/organization-type",
                "code": "dept"
              }
            ]
          },
          {
            "coding": [
              {
                "system": "urn:oid:1.2.392.100495.20.2.51",
                "code": "11"
              }
            ]
          }
        ],
        "name": "眼科",
        "partOf": {
          "reference": "urn:uuid:4732cd90-71ef-4f8a-8549-7027fe0b4236"
        }
      }
    },
    {
      "fullUrl": "urn:uuid:b338fe1f-7464-45be-a2e9-7c461db14591",
      "resource": {
        "resourceType": "Encounter",
        "id": "purposeReferralExample01Inline",
        "meta": {
          "profile": [
            "http://jpfhir.jp/fhir/core/StructureDefinition/JP_Encounter",
            "http://jpfhir.jp/fhir/eClinicalSummary/StructureDefinition/JP_Encounter_eClinicalSummary"
          ]
        },
        "identifier": [
          {
            "system": "http://jpfhir.jp/fhir/core/IdSystem/resourceInstance-identifier",
            "value": "192837"
          }
        ],
        "status": "finished",
        "class": {
          "system": "http://terminology.hl7.org/CodeSystem/v3-ActCode",
          "code": "AMB",
          "display": "外来"
        },
        "reasonCode": [
          {
            "text": "腹痛精査お願いします。"
          }
        ]
      }
    },
    {
      "fullUrl": "urn:uuid:b9f0f06c-177b-405a-a383-6f01a548dd16",
      "resource": {
        "resourceType": "Condition",
        "id": "cc1ReferralExample01Inline",
        "meta": {
          "profile": [
            "http://jpfhir.jp/fhir/core/StructureDefinition/JP_Condition",
            "http://jpfhir.jp/fhir/eClinicalSummary/StructureDefinition/JP_Condition_eClinicalSummary"
          ]
        },
        "identifier": [
          {
            "system": "http://jpfhir.jp/fhir/core/IdSystem/resourceInstance-identifier",
            "value": "192837-01"
          }
        ],
        "clinicalStatus": {
          "coding": [
            {
              "code": "active",
              "system": "http://terminology.hl7.org/CodeSystem/condition-clinical"
            }
          ]
        },
        "category": [
          {
            "coding": [
              {
                "code": "problem-list-item",
                "system": "http://terminology.hl7.org/CodeSystem/condition-category"
              }
            ]
          }
        ],
        "code": {
          "text": "上腹部痛"
        },
        "subject": {
          "reference": "urn:uuid:714d7ead-c92b-4342-87ba-57cd89a0c363"
        },
        "onsetDateTime": "2022-06-09"
      }
    },
    {
      "fullUrl": "urn:uuid:e8358718-ba6e-4aab-bddd-67d323eb9f44",
      "resource": {
        "resourceType": "Condition",
        "id": "cc2ReferralExample01Inline",
        "meta": {
          "profile": [
            "http://jpfhir.jp/fhir/core/StructureDefinition/JP_Condition",
            "http://jpfhir.jp/fhir/eClinicalSummary/StructureDefinition/JP_Condition_eClinicalSummary"
          ]
        },
        "identifier": [
          {
            "system": "http://jpfhir.jp/fhir/core/IdSystem/resourceInstance-identifier",
            "value": "192837-02"
          }
        ],
        "clinicalStatus": {
          "coding": [
            {
              "code": "active",
              "system": "http://terminology.hl7.org/CodeSystem/condition-clinical"
            }
          ]
        },
        "category": [
          {
            "coding": [
              {
                "code": "problem-list-item",
                "system": "http://terminology.hl7.org/CodeSystem/condition-category"
              }
            ]
          }
        ],
        "code": {
          "text": "腰痛"
        },
        "subject": {
          "reference": "urn:uuid:714d7ead-c92b-4342-87ba-57cd89a0c363"
        },
        "onsetDateTime": "2022-05"
      }
    },
    {
      "fullUrl": "urn:uuid:7e267642-6662-4f6a-821e-1a743140fe49",
      "resource": {
        "resourceType": "Condition",
        "id": "piReferralExample01Inline",
        "meta": {
          "profile": [
            "http://jpfhir.jp/fhir/core/StructureDefinition/JP_Condition",
            "http://jpfhir.jp/fhir/eClinicalSummary/StructureDefinition/JP_Condition_eClinicalSummary"
          ]
        },
        "identifier": [
          {
            "system": "http://jpfhir.jp/fhir/core/IdSystem/resourceInstance-identifier",
            "value": "192838"
          }
        ],
        "clinicalStatus": {
          "coding": [
            {
              "code": "active",
              "system": "http://terminology.hl7.org/CodeSystem/condition-clinical"
            }
          ]
        },
        "category": [
          {
            "coding": [
              {
                "code": "problem-list-item",
                "system": "http://terminology.hl7.org/CodeSystem/condition-category"
              }
            ]
          }
        ],
        "code": {
          "text": "上腹部痛"
        },
        "subject": {
          "reference": "urn:uuid:714d7ead-c92b-4342-87ba-57cd89a0c363"
        },
        "note": [
          {
            "text": "２０２２年６月上旬から夜食後に時々上腹部痛があり、だんだんひどくなっている。他に目立った症状なし。"
          }
        ]
      }
    },
    {
      "fullUrl": "urn:uuid:54764f12-6227-4b17-bddc-ae289119920d",
      "resource": {
        "resourceType": "Condition",
        "id": "ph1ReferralExample01Inline",
        "meta": {
          "profile": [
            "http://jpfhir.jp/fhir/core/StructureDefinition/JP_Condition",
            "http://jpfhir.jp/fhir/eClinicalSummary/StructureDefinition/JP_Condition_eClinicalSummary"
          ]
        },
        "identifier": [
          {
            "system": "http://jpfhir.jp/fhir/core/IdSystem/resourceInstance-identifier",
            "value": "192839-01"
          }
        ],
        "clinicalStatus": {
          "coding": [
            {
              "code": "active",
              "system": "http://terminology.hl7.org/CodeSystem/condition-clinical"
            }
          ]
        },
        "category": [
          {
            "coding": [
              {
                "code": "problem-list-item",
                "system": "http://terminology.hl7.org/CodeSystem/condition-category"
              }
            ]
          }
        ],
        "code": {
          "text": "狭心症"
        },
        "subject": {
          "reference": "urn:uuid:714d7ead-c92b-4342-87ba-57cd89a0c363"
        },
        "onsetDateTime": "2018",
        "note": [
          {
            "text": "2018年　狭心症　２ヶ月治療で軽快。"
          }
        ]
      }
    },
    {
      "fullUrl": "urn:uuid:9d2f9a9d-9dab-478c-a0ec-6dddbf07d3fb",
      "resource": {
        "resourceType": "Condition",
        "id": "ph2ReferralExample01Inline",
        "meta": {
          "profile": [
            "http://jpfhir.jp/fhir/core/StructureDefinition/JP_Condition",
            "http://jpfhir.jp/fhir/eClinicalSummary/StructureDefinition/JP_Condition_eClinicalSummary"
          ]
        },
        "identifier": [
          {
            "system": "http://jpfhir.jp/fhir/core/IdSystem/resourceInstance-identifier",
            "value": "192839-02"
          }
        ],
        "clinicalStatus": {
          "coding": [
            {
              "code": "active",
              "system": "http://terminology.hl7.org/CodeSystem/condition-clinical"
            }
          ]
        },
        "category": [
          {
            "coding": [
              {
                "code": "problem-list-item",
                "system": "http://terminology.hl7.org/CodeSystem/condition-category"
              }
            ]
          }
        ],
        "code": {
          "text": "左前腕骨折"
        },
        "subject": {
          "reference": "urn:uuid:714d7ead-c92b-4342-87ba-57cd89a0c363"
        },
        "onsetDateTime": "2019",
        "note": [
          {
            "text": "交通事故で左前腕骨折　３ヶ月ギプス固定。"
          }
        ]
      }
    },
    {
      "fullUrl": "urn:uuid:ff9adfca-bf93-413a-8671-dd6de2a5654f",
      "resource": {
        "resourceType": "AllergyIntolerance",
        "id": "alg1ReferralExample01Inline",
        "meta": {
          "profile": [
            "http://jpfhir.jp/fhir/core/StructureDefinition/JP_AllergyIntolerance",
            "http://jpfhir.jp/fhir/eClinicalSummary/StructureDefinition/JP_AllergyIntolerance_eClinicalSummary"
          ]
        },
        "identifier": [
          {
            "system": "http://jpfhir.jp/fhir/core/IdSystem/resourceInstance-identifier",
            "value": "102934701"
          }
        ],
        "clinicalStatus": {
          "coding": [
            {
              "code": "active",
              "system": "http://terminology.hl7.org/CodeSystem/allergyintolerance-clinical"
            }
          ]
        },
        "type": "allergy",
        "category": [
          "food"
        ],
        "criticality": "unable-to-assess",
        "code": {
          "text": "サバ"
        },
        "patient": {
          "reference": "urn:uuid:714d7ead-c92b-4342-87ba-57cd89a0c363"
        },
        "encounter": {
          "reference": "urn:uuid:666cacd1-c1d4-4fdd-bea4-0409629f8027"
        },
        "onsetAge": {
          "system": "http://unitsofmeasure.org",
          "value": 30,
          "code": "a"
        },
        "note": [
          {
            "text": "サバ食後３時間ほどで全身に発疹と腹痛あり"
          }
        ]
      }
    },
    {
      "fullUrl": "urn:uuid:a304f316-e47a-4240-ae70-34da3e75719e",
      "resource": {
        "resourceType": "AllergyIntolerance",
        "id": "alg1ReferralExample02Inline",
        "meta": {
          "profile": [
            "http://jpfhir.jp/fhir/core/StructureDefinition/JP_AllergyIntolerance",
            "http://jpfhir.jp/fhir/eClinicalSummary/StructureDefinition/JP_AllergyIntolerance_eClinicalSummary"
          ]
        },
        "identifier": [
          {
            "system": "http://jpfhir.jp/fhir/core/IdSystem/resourceInstance-identifier",
            "value": "102934701"
          }
        ],
        "clinicalStatus": {
          "coding": [
            {
              "code": "active",
              "system": "http://terminology.hl7.org/CodeSystem/allergyintolerance-clinical"
            }
          ]
        },
        "type": "allergy",
        "category": [
          "food"
        ],
        "criticality": "unable-to-assess",
        "code": {
          "text": "キーウイ"
        },
        "patient": {
          "reference": "urn:uuid:714d7ead-c92b-4342-87ba-57cd89a0c363"
        },
        "encounter": {
          "reference": "urn:uuid:666cacd1-c1d4-4fdd-bea4-0409629f8027"
        },
        "onsetAge": {
          "system": "http://unitsofmeasure.org",
          "value": 10,
          "code": "a"
        },
        "note": [
          {
            "text": "食べると口の周りが痺れる感じ"
          }
        ]
      }
    },
    {
      "fullUrl": "urn:uuid:3758edce-3fd0-414a-be35-226a8742a6bb",
      "resource": {
        "resourceType": "Observation",
        "id": "psobsCommonExample01Inline",
        "meta": {
          "profile": [
            "http://jpfhir.jp/fhir/core/StructureDefinition/JP_Observation_Common"
          ]
        },
        "identifier": [
          {
            "system": "http://jpfhir.jp/fhir/core/IdSystem/resourceInstance-identifier",
            "value": "192837"
          }
        ],
        "status": "final",
        "category": [
          {
            "coding": [
              {
                "code": "exam",
                "system": "http://terminology.hl7.org/CodeSystem/observation-category",
                "display": "身体検査・観察"
              }
            ]
          }
        ],
        "code": {
          "text": "腹部所見"
        },
        "subject": {
          "reference": "urn:uuid:714d7ead-c92b-4342-87ba-57cd89a0c363"
        },
        "valueString": "上腹部圧痛あり、その他特に所見なし。"
      }
    },
    {
      "fullUrl": "urn:uuid:1d1a8866-2351-4c3b-890c-67e6b639d364",
      "resource": {
        "resourceType": "DocumentReference",
        "id": "ccourseReferralExample01Inline",
        "meta": {
          "profile": [
            "http://jpfhir.jp/fhir/core/StructureDefinition/JP_DocumentReference",
            "http://jpfhir.jp/fhir/eClinicalSummary/StructureDefinition/JP_DocumentReference_eClinicalSummary"
          ]
        },
        "status": "current",
        "type": {
          "coding": [
            {
              "system": "http://loinc.org",
              "code": "11506-3",
              "display": "Progress note"
            }
          ]
        },
        "description": "臨床経過",
        "content": [
          {
            "attachment": {
              "contentType": "text/plain;charset=UTF-8",
              "data": ""
            }
          }
        ]
      }
    },
    {
      "fullUrl": "urn:uuid:2318e40f-3eac-4d98-949b-b82346ff47cc",
      "resource": {
        "resourceType": "MedicationRequest",
        "id": "MedicationRequestExample01Inline",
        "meta": {
          "profile": [
            "http://jpfhir.jp/fhir/core/StructureDefinition/JP_MedicationRequest",
            "http://jpfhir.jp/fhir/ePrescription/StructureDefinition/JP_MedicationRequest_ePrescriptionData"
          ]
        },
        "identifier": [
          {
            "system": "urn:oid:1.2.392.100495.20.3.81",
            "value": "1"
          },
          {
            "system": "urn:oid:1.2.392.100495.20.3.82",
            "value": "1"
          }
        ],
        "status": "active",
        "intent": "order",
        "medicationCodeableConcept": {
          "coding": [
            {
              "code": "103831601",
              "system": "urn:oid:1.2.392.200119.4.403.1",
              "display": "カルボシステイン錠２５０ｍｇ"
            },
            {
              "code": "2233002F1280",
              "system": "urn:oid:1.2.392.100495.20.1.73",
              "display": "カルボシステイン錠２５０ｍｇ"
            }
          ],
          "text": "カルボシステイン２５０ｍｇ錠"
        },
        "subject": {
          "reference": "urn:uuid:714d7ead-c92b-4342-87ba-57cd89a0c363"
        },
        "authoredOn": "2020-08-21T12:28:17+09:00",
        "dosageInstruction": [
          {
            "text": "内服・経口・１日３回朝昼夕食後",
            "extension": [
              {
                "url": "http://jpfhir.jp/fhir/core/Extension/StructureDefinition/JP_MedicationDosage_UsageDuration",
                "valueDuration": {
                  "value": 7,
                  "code": "d",
                  "system": "http://unitsofmeasure.org",
                  "unit": "日"
                }
              }
            ],
            "timing": {
              "repeat": {
                "boundsDuration": {
                  "value": 7,
                  "code": "d",
                  "system": "http://unitsofmeasure.org",
                  "unit": "日"
                }
              },
              "code": {
                "coding": [
                  {
                    "code": "1013044400000000",
                    "system": "urn:oid:1.2.392.200250.2.2.20",
                    "display": "内服・経口・１日３回朝昼夕食後"
                  }
                ]
              }
            },
            "route": {
              "coding": [
                {
                  "code": "PO",
                  "system": "http://jpfhir.jp/fhir/core/CodeSystem/route-codes",
                  "display": "口"
                }
              ]
            },
            "method": {
              "coding": [
                {
                  "code": "1",
                  "system": "urn:oid:1.2.392.200250.2.2.20.30",
                  "display": "内服"
                }
              ]
            },
            "doseAndRate": [
              {
                "type": {
                  "coding": [
                    {
                      "code": "1",
                      "system": "urn:oid:1.2.392.100495.20.2.22",
                      "display": "製剤量"
                    }
                  ]
                },
                "doseQuantity": {
                  "value": 1,
                  "code": "TAB",
                  "system": "urn:oid:1.2.392.100495.20.2.101",
                  "unit": "錠"
                },
                "rateRatio": {
                  "numerator": {
                    "value": 3,
                    "code": "TAB",
                    "system": "urn:oid:1.2.392.100495.20.2.101",
                    "unit": "錠"
                  },
                  "denominator": {
                    "value": 1,
                    "code": "d",
                    "system": "http://unitsofmeasure.org",
                    "unit": "日"
                  }
                }
              }
            ]
          }
        ],
        "dispenseRequest": {
          "quantity": {
            "value": 21,
            "code": "TAB",
            "system": "urn:oid:1.2.392.100495.20.2.101",
            "unit": "錠"
          },
          "expectedSupplyDuration": {
            "value": 7,
            "code": "d",
            "system": "http://unitsofmeasure.org",
            "unit": "日"
          }
        },
        "substitution": {
          "allowedCodeableConcept": {
            "coding": [
              {
                "code": "1",
                "system": "urn:oid:1.2.392.100495.20.2.41",
                "display": "変更不可"
              }
            ]
          },
          "reason": {
            "text": "患者希望"
          }
        }
      }
    },
    {
      "fullUrl": "urn:uuid:8f48f39e-fef0-4c22-becb-df12f65f55c5",
      "resource": {
        "resourceType": "MedicationRequest",
        "id": "JP-MedReq-ePreData-Example-fukintouByDayInline",
        "meta": {
          "profile": [
            "http://jpfhir.jp/fhir/core/StructureDefinition/JP_MedicationRequest",
            "http://jpfhir.jp/fhir/ePrescription/StructureDefinition/JP_MedicationRequest_ePrescriptionData"
          ]
        },
        "identifier": [
          {
            "system": "urn:oid:1.2.392.100495.20.3.81",
            "value": "9"
          },
          {
            "system": "urn:oid:1.2.392.100495.20.3.82",
            "value": "1"
          }
        ],
        "status": "active",
        "intent": "order",
        "medicationCodeableConcept": {
          "coding": [
            {
              "code": "105271807",
              "system": "urn:oid:1.2.392.200119.4.403.1",
              "display": "プレドニン錠５ｍｇ"
            }
          ],
          "text": "プレドニン錠５ｍｇ"
        },
        "subject": {
          "reference": "urn:uuid:714d7ead-c92b-4342-87ba-57cd89a0c363"
        },
        "authoredOn": "2020-08-21T12:28:17+09:00",
        "dosageInstruction": [
          {
            "text": "１日３回　毎食後　７錠（４錠－２錠－１錠）",
            "extension": [
              {
                "url": "http://jpfhir.jp/fhir/core/Extension/StructureDefinition/JP_MedicationDosage_UsageDuration",
                "valueDuration": {
                  "value": 7,
                  "code": "d",
                  "system": "http://unitsofmeasure.org",
                  "unit": "日"
                }
              }
            ],
            "additionalInstruction": [
              {
                "coding": [
                  {
                    "code": "V14NNNNN",
                    "system": "urn:oid:1.2.392.200250.2.2.20.22",
                    "display": "不均等・１回目・４単位量"
                  }
                ]
              },
              {
                "coding": [
                  {
                    "code": "V22NNNNN",
                    "system": "urn:oid:1.2.392.200250.2.2.20.22",
                    "display": "不均等・１回目・２単位量"
                  }
                ]
              },
              {
                "coding": [
                  {
                    "code": "V31NNNNN",
                    "system": "urn:oid:1.2.392.200250.2.2.20.22",
                    "display": "不均等・１回目・１単位量"
                  }
                ]
              }
            ],
            "timing": {
              "repeat": {
                "boundsDuration": {
                  "value": 7,
                  "code": "d",
                  "system": "http://unitsofmeasure.org",
                  "unit": "日"
                }
              },
              "code": {
                "coding": [
                  {
                    "code": "1013044400000000",
                    "system": "urn:oid:1.2.392.200250.2.2.20",
                    "display": "内服・経口・１日３回毎食後"
                  }
                ]
              }
            },
            "route": {
              "coding": [
                {
                  "code": "PO",
                  "system": "http://jpfhir.jp/fhir/core/CodeSystem/route-codes",
                  "display": "口"
                }
              ]
            },
            "method": {
              "coding": [
                {
                  "code": "1",
                  "system": "urn:oid:1.2.392.200250.2.2.20.30",
                  "display": "内服"
                }
              ]
            },
            "doseAndRate": [
              {
                "type": {
                  "coding": [
                    {
                      "code": "1",
                      "system": "urn:oid:1.2.392.100495.20.2.22",
                      "display": "製剤量"
                    }
                  ]
                },
                "rateRatio": {
                  "numerator": {
                    "value": 7,
                    "code": "TAB",
                    "system": "urn:oid:1.2.392.100495.20.2.101",
                    "unit": "錠"
                  },
                  "denominator": {
                    "value": 1,
                    "code": "d",
                    "system": "http://unitsofmeasure.org",
                    "unit": "日"
                  }
                }
              }
            ]
          }
        ],
        "dispenseRequest": {
          "quantity": {
            "value": 49,
            "code": "TAB",
            "system": "urn:oid:1.2.392.100495.20.2.101",
            "unit": "錠"
          },
          "expectedSupplyDuration": {
            "value": 7,
            "code": "d",
            "system": "http://unitsofmeasure.org",
            "unit": "日"
          }
        },
        "substitution": {
          "allowedCodeableConcept": {
            "coding": [
              {
                "code": "0",
                "system": "urn:oid:1.2.392.100495.20.2.41",
                "display": "変更可"
              }
            ]
          }
        }
      }
    }
  ]
}
