{
  "resourceType": "Bundle",
  "id": "bundleReferralExample01",
  "meta": {
    "profile": [
      "http://jpfhir.jp/fhir/eReferral/StructureDefinition/JP_Bundle_eReferral"
    ]
  },
  "identifier": {
    "system": "http://jpfhir.jp/fhir/core/IdSystem/documentInstance-identifier",
    "value": "123456"
  },
  "type": "document",
  "timestamp": "2021-11-26T10:00:00+09:00",
  "entry": [
    {
      "fullUrl": "urn:uuid:2c66b453-f904-438b-a18f-f7489bad606e",
      "resource": {
        "resourceType": "Composition",
        "id": "compositionReferralExample01",
        "meta": {
          "profile": [
            "http://jpfhir.jp/fhir/eReferral/StructureDefinition/JP_Composition_eReferral"
          ]
        },
        "extension": [
          {
            "url": "http://hl7.org/fhir/StructureDefinition/composition-clinicaldocument-versionNumber",
            "valueString": "ARGcode"
          }
        ],
        "identifier": {
          "system": "http://jpfhir.jp/fhir/core/IdSystem/resourceInstance-identifier",
          "value": "ARGcode"
        },
        "status": "final",
        "type": {
          "coding": [
            {
              "code": "57133-1",
              "system": "http://jpfhir.jp/fhir/Common/CodeSystem/doc-typecodes",
              "display": "診療情報提供書"
            }
          ]
        },
        "category": [
          {
            "coding": [
              {
                "code": "57133-1",
                "system": "http://jpfhir.jp/fhir/Common/CodeSystem/doc-typecodes",
                "display": "診療情報提供書"
              }
            ]
          }
        ],
        "subject": {
          "reference": "urn:uuid:0a43ab16-b609-4aff-926b-501d1fd3993d",
          "type": "Patient",
          "display": "患者リソースPatient"
        },
        "date": "2020-08-21T12:12:20+09:00",
        "author": [
          {
            "reference": "urn:uuid:eb3727e4-fd9a-4281-8a0a-c6970413f3cc",
            "type": "Practitioner",
            "display": "紹介状作成者PractitionerRoleリソース"
          },
          {
            "reference": "urn:uuid:221f2598-cab7-461a-832b-8b5501c7d42c",
            "type": "Organization",
            "display": "紹介状作成機関Organizationリソース"
          }
        ],
        "title": "診療情報提供書",
        "custodian": {
          "reference": "urn:uuid:221f2598-cab7-461a-832b-8b5501c7d42c",
          "type": "Organization",
          "display": "紹介状交付責任機関Organizationリソース"
        },
        "event": [
          {
            "code": [
              {
                "text": "診療情報提供書発行"
              }
            ],
            "period": {
              "start": "2020-08-21"
            }
          }
        ],
        "section": [
          {
            "title": "紹介先情報",
            "code": {
              "coding": [
                {
                  "code": "910",
                  "system": "http://jpfhir.jp/fhir/eReferral/CodeSystem/document-section",
                  "display": "紹介先情報セクション"
                }
              ]
            },
            "text": {
              "status": "additional",
              "div": "<div xmlns=\"http://www.w3.org/1999/xhtml\">東京第一テスト病院</div>"
            },
            "entry": [
              {
                "reference": "urn:uuid:5fefea53-098d-4793-9425-2aa783f34830",
                "type": "Organization",
                "display": "紹介先医療機関"
              },
              {
                "reference": "urn:uuid:d4163977-9402-4e01-83fb-1564ab24370e",
                "type": "Organization",
                "display": "紹介先診療科"
              },
              {
                "reference": "urn:uuid:daa34959-b248-4df3-8ac0-d910ab22f14b",
                "type": "Practitioner",
                "display": "紹介先医師"
              }
            ]
          },
          {
            "title": "紹介元情報",
            "code": {
              "coding": [
                {
                  "code": "920",
                  "system": "http://jpfhir.jp/fhir/eReferral/CodeSystem/document-section",
                  "display": "紹介元情報セクション"
                }
              ]
            },
            "text": {
              "status": "additional",
              "div": "<div xmlns=\"http://www.w3.org/1999/xhtml\">港診療所</div>"
            },
            "entry": [
              {
                "reference": "urn:uuid:221f2598-cab7-461a-832b-8b5501c7d42c",
                "type": "Organization",
                "display": "紹介元医療機関"
              },
              {
                "reference": "urn:uuid:8af6af7a-161a-442e-84a5-3195b101e031",
                "type": "Organization",
                "display": "紹介元診療科"
              },
              {
                "reference": "urn:uuid:eb3727e4-fd9a-4281-8a0a-c6970413f3cc",
                "type": "Practitioner",
                "display": "紹介元医師"
              }
            ]
          },
          {
            "title": "構造情報",
            "code": {
              "coding": [
                {
                  "code": "300",
                  "system": "http://jpfhir.jp/fhir/eReferral/CodeSystem/document-section",
                  "display": "構造情報セクション"
                }
              ]
            },
            "section": [
              {
                "title": "紹介目的",
                "code": {
                  "coding": [
                    {
                      "code": "950",
                      "system": "http://jpfhir.jp/fhir/eReferral/CodeSystem/document-section",
                      "display": "紹介目的セクション"
                    }
                  ]
                },
                "text": {
                  "status": "additional",
                  "div": "<div xmlns=\"http://www.w3.org/1999/xhtml\">腹痛精査お願いします。</div>"
                },
                "entry": [
                  {
                    "reference": "urn:uuid:da36cc86-7f13-48a6-a10c-cdb4b22badda",
                    "type": "Encounter",
                    "display": "紹介目的"
                  }
                ]
              },
              {
                "title": "傷病名・主訴",
                "code": {
                  "coding": [
                    {
                      "code": "340",
                      "system": "http://jpfhir.jp/fhir/eReferral/CodeSystem/document-section",
                      "display": "傷病名・主訴セクション"
                    }
                  ]
                },
                "text": {
                  "status": "additional",
                  "div": "<div xmlns=\"http://www.w3.org/1999/xhtml\">上腹部痛、腰痛</div>"
                },
                "entry": [
                  {
                    "reference": "urn:uuid:57aec5e9-960e-4871-9852-2205b30256f6",
                    "type": "Condition",
                    "display": "傷病名・主訴"
                  },
                  {
                    "reference": "urn:uuid:504be63e-e983-4eb4-bdf6-c3b511135b34",
                    "type": "Condition",
                    "display": "傷病名・主訴"
                  }
                ]
              },
              {
                "title": "現病歴",
                "code": {
                  "coding": [
                    {
                      "code": "360",
                      "system": "http://jpfhir.jp/fhir/eReferral/CodeSystem/document-section",
                      "display": "現病歴セクション"
                    }
                  ]
                },
                "text": {
                  "status": "additional",
                  "div": "<div xmlns=\"http://www.w3.org/1999/xhtml\">２０２２年６月上旬から夜食後に時々上腹部痛があり、だんだんひどくなっている。他に目立った症状なし。</div>"
                },
                "entry": [
                  {
                    "reference": "urn:uuid:569892e2-dc8f-457f-ae4a-91e847d0eb25",
                    "type": "Condition",
                    "display": "現病歴"
                  }
                ]
              },
              {
                "title": "既往歴",
                "code": {
                  "coding": [
                    {
                      "code": "370",
                      "system": "http://jpfhir.jp/fhir/eReferral/CodeSystem/document-section",
                      "display": "既往歴セクション"
                    }
                  ]
                },
                "text": {
                  "status": "additional",
                  "div": "<div xmlns=\"http://www.w3.org/1999/xhtml\">2018年　狭心症　２ヶ月治療で軽快。2019年　交通事故で左前腕骨折　３ヶ月ギプス固定。</div>"
                },
                "entry": [
                  {
                    "reference": "urn:uuid:7a5006f3-d0e0-4b6d-b7fc-18602f3ca0b8",
                    "type": "Condition",
                    "display": "既往歴"
                  },
                  {
                    "reference": "urn:uuid:369c732b-b377-4aa8-b0b1-6242191ccdfd",
                    "type": "Condition",
                    "display": "既往歴"
                  }
                ]
              },
              {
                "title": "アレルギー・不耐性反応",
                "code": {
                  "coding": [
                    {
                      "code": "510",
                      "system": "http://jpfhir.jp/fhir/eReferral/CodeSystem/document-section",
                      "display": "アレルギー・不耐性反応セクション"
                    }
                  ]
                },
                "text": {
                  "status": "additional",
                  "div": "<div xmlns=\"http://www.w3.org/1999/xhtml\">サバ　キーウイ</div>"
                },
                "entry": [
                  {
                    "reference": "urn:uuid:32fc0a5c-6950-4d58-a396-ace45e6730fb",
                    "type": "AllergyIntolerance",
                    "display": "アレルギー・不耐性反応"
                  },
                  {
                    "reference": "urn:uuid:559b131f-e275-4202-9783-830555ad4635",
                    "type": "AllergyIntolerance",
                    "display": "アレルギー・不耐性反応"
                  }
                ]
              },
              {
                "title": "家族歴",
                "code": {
                  "coding": [
                    {
                      "code": "550",
                      "system": "http://jpfhir.jp/fhir/eReferral/CodeSystem/document-section",
                      "display": "家族歴セクション"
                    }
                  ]
                },
                "text": {
                  "status": "additional",
                  "div": "<div xmlns=\"http://www.w3.org/1999/xhtml\">母　胃がん</div>"
                }
              },
              {
                "title": "身体所見",
                "code": {
                  "coding": [
                    {
                      "code": "610",
                      "system": "http://jpfhir.jp/fhir/eReferral/CodeSystem/document-section",
                      "display": "身体所見セクション"
                    }
                  ]
                },
                "text": {
                  "status": "additional",
                  "div": "<div xmlns=\"http://www.w3.org/1999/xhtml\">腹部所見：上腹部圧痛あり、その他特に所見なし。</div>"
                },
                "entry": [
                  {
                    "reference": "urn:uuid:dabd2db0-d0fb-4405-85d5-2f34c04aa1be",
                    "type": "Observation",
                    "display": "身体所見"
                  }
                ]
              },
              {
                "title": "感染症情報",
                "code": {
                  "coding": [
                    {
                      "code": "520",
                      "system": "http://jpfhir.jp/fhir/eReferral/CodeSystem/document-section",
                      "display": "感染症情報セクション"
                    }
                  ]
                },
                "text": {
                  "status": "additional",
                  "div": "<div xmlns=\"http://www.w3.org/1999/xhtml\">特になし</div>"
                }
              },
              {
                "title": "臨床経過",
                "code": {
                  "coding": [
                    {
                      "code": "330",
                      "system": "http://jpfhir.jp/fhir/eReferral/CodeSystem/document-section",
                      "display": "臨床経過セクション"
                    }
                  ]
                },
                "text": {
                  "status": "additional",
                  "div": "<div xmlns=\"http://www.w3.org/1999/xhtml\">添付参照</div>"
                },
                "entry": [
                  {
                    "reference": "urn:uuid:53474e78-4cd6-4816-9c5a-87652169e9da",
                    "type": "DocumentReference",
                    "display": "臨床経過"
                  }
                ]
              }
            ]
          }
        ]
      }
    },
    {
      "fullUrl": "urn:uuid:0a43ab16-b609-4aff-926b-501d1fd3993d",
      "resource": {
        "resourceType": "Patient",
        "id": "jppatientExample01",
        "meta": {
          "profile": [
            "http://jpfhir.jp/fhir/core/StructureDefinition/JP_Patient"
          ]
        },
        "identifier": [
          {
            "system": "urn:oid:1.2.392.200119.6.102.11234567890",
            "value": "12345"
          }
        ],
        "active": true,
        "name": [
          {
            "extension": [
              {
                "url": "http://hl7.org/fhir/StructureDefinition/iso21090-EN-representation",
                "valueCode": "IDE"
              }
            ],
            "use": "official",
            "text": "田中　太郎",
            "family": "田中",
            "given": [
              "太郎"
            ]
          },
          {
            "extension": [
              {
                "url": "http://hl7.org/fhir/StructureDefinition/iso21090-EN-representation",
                "valueCode": "SYL"
              }
            ],
            "use": "official",
            "text": "タナカ　タロウ",
            "family": "タナカ",
            "given": [
              "タロウ"
            ]
          }
        ],
        "telecom": [
          {
            "system": "phone",
            "value": "03-1234-5678",
            "use": "home"
          }
        ],
        "gender": "male",
        "birthDate": "1955-05-04",
        "address": [
          {
            "text": "神奈川県横浜市港区１－２－３",
            "postalCode": "123-4567",
            "country": "JP"
          }
        ]
      }
    },
    {
      "fullUrl": "urn:uuid:eb3727e4-fd9a-4281-8a0a-c6970413f3cc",
      "resource": {
        "resourceType": "Practitioner",
        "id": "referralFromPractitionerExample01",
        "meta": {
          "profile": [
            "http://jpfhir.jp/fhir/core/StructureDefinition/JP_Practitioner",
            "http://jpfhir.jp/fhir/eClinicalSummary/StructureDefinition/JP_Practitioner_eClinicalSummary_author"
          ]
        },
        "name": [
          {
            "extension": [
              {
                "url": "http://hl7.org/fhir/StructureDefinition/iso21090-EN-representation",
                "valueCode": "IDE"
              }
            ],
            "use": "official",
            "text": "大河内　勘三郎",
            "family": "大河内",
            "given": [
              "勘三郎"
            ]
          },
          {
            "extension": [
              {
                "url": "http://hl7.org/fhir/StructureDefinition/iso21090-EN-representation",
                "valueCode": "SYL"
              }
            ],
            "use": "official",
            "text": "オオコウチ　カンザブロウ",
            "family": "オオコウチ",
            "given": [
              "カンザブロウ"
            ]
          }
        ]
      }
    },
    {
      "fullUrl": "urn:uuid:daa34959-b248-4df3-8ac0-d910ab22f14b",
      "resource": {
        "resourceType": "Practitioner",
        "id": "referralToPractitionerExample01",
        "meta": {
          "profile": [
            "http://jpfhir.jp/fhir/core/StructureDefinition/JP_Practitioner",
            "http://jpfhir.jp/fhir/eClinicalSummary/StructureDefinition/JP_Practitioner_eClinicalSummary_author"
          ]
        },
        "name": [
          {
            "extension": [
              {
                "url": "http://hl7.org/fhir/StructureDefinition/iso21090-EN-representation",
                "valueCode": "IDE"
              }
            ],
            "use": "official",
            "text": "野口　英世丸",
            "family": "野口",
            "given": [
              "英世丸"
            ]
          },
          {
            "extension": [
              {
                "url": "http://hl7.org/fhir/StructureDefinition/iso21090-EN-representation",
                "valueCode": "SYL"
              }
            ],
            "use": "official",
            "text": "ノグチ　ヒデヨマル",
            "family": "ノグチ",
            "given": [
              "ヒデヨマル"
            ]
          }
        ]
      }
    },
    {
      "fullUrl": "urn:uuid:221f2598-cab7-461a-832b-8b5501c7d42c",
      "resource": {
        "resourceType": "Organization",
        "id": "referralFromOrganizaitonExample01",
        "meta": {
          "profile": [
            "http://jpfhir.jp/fhir/core/StructureDefinition/JP_Organization",
            "http://jpfhir.jp/fhir/eClinicalSummary/StructureDefinition/JP_Organization_eClinicalSummary_issuer"
          ]
        },
        "extension": [
          {
            "url": "http://jpfhir.jp/fhir/core/Extension/StructureDefinition/JP_Organization_PrefectureNo",
            "valueCoding": {
              "system": "urn:oid:1.2.392.100495.20.3.21",
              "code": "13"
            }
          },
          {
            "url": "http://jpfhir.jp/fhir/core/Extension/StructureDefinition/JP_Organization_InsuranceOrganizationCategory",
            "valueCoding": {
              "system": "urn:oid:1.2.392.100495.20.3.22",
              "code": "1"
            }
          },
          {
            "url": "http://jpfhir.jp/fhir/core/Extension/StructureDefinition/JP_Organization_InsuranceOrganizationNo",
            "valueIdentifier": {
              "system": "urn:oid:1.2.392.100495.20.3.23",
              "value": "9876543"
            }
          }
        ],
        "identifier": [
          {
            "system": "http://jpfhir.jp/fhir/core/IdSystem/insurance-medical-institution-no",
            "value": "1319876543"
          }
        ],
        "type": [
          {
            "coding": [
              {
                "system": "http://terminology.hl7.org/CodeSystem/organization-type",
                "code": "prov"
              }
            ]
          }
        ],
        "name": "港診療所",
        "telecom": [
          {
            "system": "phone",
            "value": "03-9876-5432"
          }
        ],
        "address": [
          {
            "text": "東京都港区新橋１−２−３",
            "postalCode": "106-9900",
            "country": "JP"
          }
        ]
      }
    },
    {
      "fullUrl": "urn:uuid:5fefea53-098d-4793-9425-2aa783f34830",
      "resource": {
        "resourceType": "Organization",
        "id": "referralToOrganizaitonExample01",
        "meta": {
          "profile": [
            "http://jpfhir.jp/fhir/core/StructureDefinition/JP_Organization",
            "http://jpfhir.jp/fhir/eClinicalSummary/StructureDefinition/JP_Organization_eClinicalSummary_issuer"
          ]
        },
        "extension": [
          {
            "url": "http://jpfhir.jp/fhir/core/Extension/StructureDefinition/JP_Organization_PrefectureNo",
            "valueCoding": {
              "system": "urn:oid:1.2.392.100495.20.3.21",
              "code": "13"
            }
          },
          {
            "url": "http://jpfhir.jp/fhir/core/Extension/StructureDefinition/JP_Organization_InsuranceOrganizationCategory",
            "valueCoding": {
              "system": "urn:oid:1.2.392.100495.20.3.22",
              "code": "1"
            }
          },
          {
            "url": "http://jpfhir.jp/fhir/core/Extension/StructureDefinition/JP_Organization_InsuranceOrganizationNo",
            "valueIdentifier": {
              "system": "urn:oid:1.2.392.100495.20.3.23",
              "value": "1234567"
            }
          }
        ],
        "identifier": [
          {
            "system": "http://jpfhir.jp/fhir/core/IdSystem/insurance-medical-institution-no",
            "value": "1311234567"
          }
        ],
        "type": [
          {
            "coding": [
              {
                "system": "http://terminology.hl7.org/CodeSystem/organization-type",
                "code": "prov"
              }
            ]
          }
        ],
        "name": "東京第一テスト病院",
        "telecom": [
          {
            "system": "phone",
            "value": "03-1234-5678"
          }
        ],
        "address": [
          {
            "text": "東京都文京区文京町１−２−３",
            "postalCode": "113-0001",
            "country": "JP"
          }
        ]
      }
    },
    {
      "fullUrl": "urn:uuid:d4163977-9402-4e01-83fb-1564ab24370e",
      "resource": {
        "resourceType": "Organization",
        "id": "referralToOrganizaitonDeptExample01",
        "meta": {
          "profile": [
            "http://jpfhir.jp/fhir/core/StructureDefinition/JP_Organization",
            "http://jpfhir.jp/fhir/eClinicalSummary/StructureDefinition/JP_Organization_eClinicalSummary_departmentOfIssuer"
          ]
        },
        "type": [
          {
            "coding": [
              {
                "system": "http://terminology.hl7.org/CodeSystem/organization-type",
                "code": "dept"
              }
            ]
          },
          {
            "coding": [
              {
                "system": "urn:oid:1.2.392.100495.20.2.51",
                "code": "03"
              }
            ]
          }
        ],
        "name": "循環器内科",
        "partOf": {
          "reference": "referralToOrganizaitonDeptExample01"
        }
      }
    },
    {
      "fullUrl": "urn:uuid:8af6af7a-161a-442e-84a5-3195b101e031",
      "resource": {
        "resourceType": "Organization",
        "id": "referralFromOrganizaitonDeptExample01",
        "meta": {
          "profile": [
            "http://jpfhir.jp/fhir/core/StructureDefinition/JP_Organization",
            "http://jpfhir.jp/fhir/eClinicalSummary/StructureDefinition/JP_Organization_eClinicalSummary_departmentOfIssuer"
          ]
        },
        "type": [
          {
            "coding": [
              {
                "system": "http://terminology.hl7.org/CodeSystem/organization-type",
                "code": "dept"
              }
            ]
          },
          {
            "coding": [
              {
                "system": "urn:oid:1.2.392.100495.20.2.51",
                "code": "11"
              }
            ]
          }
        ],
        "name": "眼科",
        "partOf": {
          "reference": "referralFromOrganizaitonDeptExample01"
        }
      }
    },
    {
      "fullUrl": "urn:uuid:da36cc86-7f13-48a6-a10c-cdb4b22badda",
      "resource": {
        "resourceType": "Encounter",
        "id": "purposeReferralExample01",
        "meta": {
          "profile": [
            "http://jpfhir.jp/fhir/core/StructureDefinition/JP_Encounter",
            "http://jpfhir.jp/fhir/eClinicalSummary/StructureDefinition/JP_Encounter_eClinicalSummary"
          ]
        },
        "identifier": [
          {
            "system": "http://jpfhir.jp/fhir/core/IdSystem/resourceInstance-identifier",
            "value": "192837"
          }
        ],
        "status": "finished",
        "class": {
          "system": "http://terminology.hl7.org/CodeSystem/v3-ActCode",
          "code": "AMB",
          "display": "外来"
        },
        "reasonCode": [
          {
            "text": "腹痛精査お願いします。"
          }
        ]
      }
    },
    {
      "fullUrl": "urn:uuid:57aec5e9-960e-4871-9852-2205b30256f6",
      "resource": {
        "resourceType": "Condition",
        "id": "cc1ReferralExample01",
        "meta": {
          "profile": [
            "http://jpfhir.jp/fhir/core/StructureDefinition/JP_Condition",
            "http://jpfhir.jp/fhir/eClinicalSummary/StructureDefinition/JP_Condition_eClinicalSummary"
          ]
        },
        "identifier": [
          {
            "system": "http://jpfhir.jp/fhir/core/IdSystem/resourceInstance-identifier",
            "value": "192837-01"
          }
        ],
        "clinicalStatus": {
          "coding": [
            {
              "code": "active",
              "system": "http://terminology.hl7.org/CodeSystem/condition-clinical"
            }
          ]
        },
        "category": [
          {
            "coding": [
              {
                "code": "problem-list-item",
                "system": "http://terminology.hl7.org/CodeSystem/condition-category"
              }
            ]
          }
        ],
        "code": {
          "text": "上腹部痛"
        },
        "subject": {
          "reference": "Patient/jppatientExample01"
        },
        "onsetDateTime": "2022-06-09"
      }
    },
    {
      "fullUrl": "urn:uuid:504be63e-e983-4eb4-bdf6-c3b511135b34",
      "resource": {
        "resourceType": "Condition",
        "id": "cc2ReferralExample01",
        "meta": {
          "profile": [
            "http://jpfhir.jp/fhir/core/StructureDefinition/JP_Condition",
            "http://jpfhir.jp/fhir/eClinicalSummary/StructureDefinition/JP_Condition_eClinicalSummary"
          ]
        },
        "identifier": [
          {
            "system": "http://jpfhir.jp/fhir/core/IdSystem/resourceInstance-identifier",
            "value": "192837-02"
          }
        ],
        "clinicalStatus": {
          "coding": [
            {
              "code": "active",
              "system": "http://terminology.hl7.org/CodeSystem/condition-clinical"
            }
          ]
        },
        "category": [
          {
            "coding": [
              {
                "code": "problem-list-item",
                "system": "http://terminology.hl7.org/CodeSystem/condition-category"
              }
            ]
          }
        ],
        "code": {
          "text": "腰痛"
        },
        "subject": {
          "reference": "Patient/jppatientExample01"
        },
        "onsetDateTime": "2022-05"
      }
    },
    {
      "fullUrl": "urn:uuid:569892e2-dc8f-457f-ae4a-91e847d0eb25",
      "resource": {
        "resourceType": "Condition",
        "id": "piReferralExample01",
        "meta": {
          "profile": [
            "http://jpfhir.jp/fhir/core/StructureDefinition/JP_Condition",
            "http://jpfhir.jp/fhir/eClinicalSummary/StructureDefinition/JP_Condition_eClinicalSummary"
          ]
        },
        "identifier": [
          {
            "system": "http://jpfhir.jp/fhir/core/IdSystem/resourceInstance-identifier",
            "value": "192838"
          }
        ],
        "clinicalStatus": {
          "coding": [
            {
              "code": "active",
              "system": "http://terminology.hl7.org/CodeSystem/condition-clinical"
            }
          ]
        },
        "category": [
          {
            "coding": [
              {
                "code": "problem-list-item",
                "system": "http://terminology.hl7.org/CodeSystem/condition-category"
              }
            ]
          }
        ],
        "code": {
          "text": "上腹部痛"
        },
        "subject": {
          "reference": "Patient/jppatientExample01"
        },
        "note": [
          {
            "text": "２０２２年６月上旬から夜食後に時々上腹部痛があり、だんだんひどくなっている。他に目立った症状なし。"
          }
        ]
      }
    },
    {
      "fullUrl": "urn:uuid:7a5006f3-d0e0-4b6d-b7fc-18602f3ca0b8",
      "resource": {
        "resourceType": "Condition",
        "id": "ph1ReferralExample01",
        "meta": {
          "profile": [
            "http://jpfhir.jp/fhir/core/StructureDefinition/JP_Condition",
            "http://jpfhir.jp/fhir/eClinicalSummary/StructureDefinition/JP_Condition_eClinicalSummary"
          ]
        },
        "identifier": [
          {
            "system": "http://jpfhir.jp/fhir/core/IdSystem/resourceInstance-identifier",
            "value": "192839-01"
          }
        ],
        "clinicalStatus": {
          "coding": [
            {
              "code": "active",
              "system": "http://terminology.hl7.org/CodeSystem/condition-clinical"
            }
          ]
        },
        "category": [
          {
            "coding": [
              {
                "code": "problem-list-item",
                "system": "http://terminology.hl7.org/CodeSystem/condition-category"
              }
            ]
          }
        ],
        "code": {
          "text": "狭心症"
        },
        "subject": {
          "reference": "Patient/jppatientExample01"
        },
        "onsetDateTime": "2018",
        "note": [
          {
            "text": "2018年　狭心症　２ヶ月治療で軽快。"
          }
        ]
      }
    },
    {
      "fullUrl": "urn:uuid:369c732b-b377-4aa8-b0b1-6242191ccdfd",
      "resource": {
        "resourceType": "Condition",
        "id": "ph2ReferralExample01",
        "meta": {
          "profile": [
            "http://jpfhir.jp/fhir/core/StructureDefinition/JP_Condition",
            "http://jpfhir.jp/fhir/eClinicalSummary/StructureDefinition/JP_Condition_eClinicalSummary"
          ]
        },
        "identifier": [
          {
            "system": "http://jpfhir.jp/fhir/core/IdSystem/resourceInstance-identifier",
            "value": "192839-02"
          }
        ],
        "clinicalStatus": {
          "coding": [
            {
              "code": "active",
              "system": "http://terminology.hl7.org/CodeSystem/condition-clinical"
            }
          ]
        },
        "category": [
          {
            "coding": [
              {
                "code": "problem-list-item",
                "system": "http://terminology.hl7.org/CodeSystem/condition-category"
              }
            ]
          }
        ],
        "code": {
          "text": "左前腕骨折"
        },
        "subject": {
          "reference": "Patient/jppatientExample01"
        },
        "onsetDateTime": "2019",
        "note": [
          {
            "text": "交通事故で左前腕骨折　３ヶ月ギプス固定。"
          }
        ]
      }
    },
    {
      "fullUrl": "urn:uuid:32fc0a5c-6950-4d58-a396-ace45e6730fb",
      "resource": {
        "resourceType": "AllergyIntolerance",
        "id": "alg1ReferralExample01",
        "meta": {
          "profile": [
            "http://jpfhir.jp/fhir/core/StructureDefinition/JP_AllergyIntolerance",
            "http://jpfhir.jp/fhir/eClinicalSummary/StructureDefinition/JP_AllergyIntolerance_eClinicalSummary"
          ]
        },
        "identifier": [
          {
            "system": "http://jpfhir.jp/fhir/core/IdSystem/resourceInstance-identifier",
            "value": "102934701"
          }
        ],
        "clinicalStatus": {
          "coding": [
            {
              "code": "active",
              "system": "http://terminology.hl7.org/CodeSystem/allergyintolerance-clinical"
            }
          ]
        },
        "type": "allergy",
        "category": [
          "food"
        ],
        "criticality": "unable-to-assess",
        "code": {
          "text": "サバ"
        },
        "patient": {
          "reference": "Patient/jppatientExample01"
        },
        "encounter": {
          "reference": "Encounter/encounterReferralExample01"
        },
        "onsetAge": {
          "system": "http://unitsofmeasure.org",
          "value": 30,
          "code": "a"
        },
        "note": [
          {
            "text": "サバ食後３時間ほどで全身に発疹と腹痛あり"
          }
        ]
      }
    },
    {
      "fullUrl": "urn:uuid:559b131f-e275-4202-9783-830555ad4635",
      "resource": {
        "resourceType": "AllergyIntolerance",
        "id": "alg1ReferralExample02",
        "meta": {
          "profile": [
            "http://jpfhir.jp/fhir/core/StructureDefinition/JP_AllergyIntolerance",
            "http://jpfhir.jp/fhir/eClinicalSummary/StructureDefinition/JP_AllergyIntolerance_eClinicalSummary"
          ]
        },
        "identifier": [
          {
            "system": "http://jpfhir.jp/fhir/core/IdSystem/resourceInstance-identifier",
            "value": "102934701"
          }
        ],
        "clinicalStatus": {
          "coding": [
            {
              "code": "active",
              "system": "http://terminology.hl7.org/CodeSystem/allergyintolerance-clinical"
            }
          ]
        },
        "type": "allergy",
        "category": [
          "food"
        ],
        "criticality": "unable-to-assess",
        "code": {
          "text": "キーウイ"
        },
        "patient": {
          "reference": "Patient/jppatientExample01"
        },
        "encounter": {
          "reference": "Encounter/encounterReferralExample01"
        },
        "onsetAge": {
          "system": "http://unitsofmeasure.org",
          "value": 10,
          "code": "a"
        },
        "note": [
          {
            "text": "食べると口の周りが痺れる感じ"
          }
        ]
      }
    },
    {
      "fullUrl": "urn:uuid:dabd2db0-d0fb-4405-85d5-2f34c04aa1be",
      "resource": {
        "resourceType": "Observation",
        "id": "psobsCommonExample01",
        "meta": {
          "profile": [
            "http://jpfhir.jp/fhir/core/StructureDefinition/JP_Observation_Common"
          ]
        },
        "identifier": [
          {
            "system": "http://jpfhir.jp/fhir/core/IdSystem/resourceInstance-identifier",
            "value": "192837"
          }
        ],
        "status": "final",
        "category": [
          {
            "coding": [
              {
                "code": "exam",
                "system": "http://terminology.hl7.org/CodeSystem/observation-category",
                "display": "身体検査・観察"
              }
            ]
          }
        ],
        "code": {
          "text": "腹部所見"
        },
        "subject": {
          "reference": "Patient/29384"
        },
        "valueString": "上腹部圧痛あり、その他特に所見なし。"
      }
    },
    {
      "fullUrl": "urn:uuid:53474e78-4cd6-4816-9c5a-87652169e9da",
      "resource": {
        "resourceType": "DocumentReference",
        "id": "ccourseReferralExample01",
        "meta": {
          "profile": [
            "http://jpfhir.jp/fhir/core/StructureDefinition/JP_DocumentReference",
            "http://jpfhir.jp/fhir/eClinicalSummary/StructureDefinition/JP_DocumentReference_eClinicalSummary"
          ]
        },
        "status": "current",
        "type": {
          "coding": [
            {
              "system": "http://loinc.org",
              "code": "11506-3",
              "display": "Progress note"
            }
          ]
        },
        "description": "臨床経過",
        "content": [
          {
            "attachment": {
              "contentType": "text/plain;charset=UTF-8",
              "data": ""
            }
          }
        ]
      }
    }
  ]
}
