{
  "resourceType": "Bundle",
  "id": "bundleReferralExample01",
  "meta": {
    "profile": [
      "http://jpfhir.jp/fhir/eReferral/StructureDefinition/JP_Bundle_eReferral"
    ]
  },
  "identifier": {
    "system": "http://jpfhir.jp/fhir/core/IdSystem/documentInstance-identifier",
    "value": "123456"
  },
  "type": "document",
  "timestamp": "2021-11-26T10:00:00+09:00",
  "entry": [
    {
      "fullUrl": "urn:uuid:937147fd-3e33-46d6-8eb9-6f391f2f3b76",
      "resource": {
        "resourceType": "Composition",
        "id": "compositionReferralExample01",
        "meta": {
          "profile": [
            "http://jpfhir.jp/fhir/eReferral/StructureDefinition/JP_Composition_eReferral"
          ]
        },
        "extension": [
          {
            "url": "http://hl7.org/fhir/StructureDefinition/composition-clinicaldocument-versionNumber",
            "valueString": "ARGcode"
          }
        ],
        "identifier": {
          "system": "http://jpfhir.jp/fhir/core/IdSystem/resourceInstance-identifier",
          "value": "ARGcode"
        },
        "status": "final",
        "type": {
          "coding": [
            {
              "code": "57133-1",
              "system": "http://jpfhir.jp/fhir/Common/CodeSystem/doc-typecodes",
              "display": "診療情報提供書"
            }
          ]
        },
        "category": [
          {
            "coding": [
              {
                "code": "57133-1",
                "system": "http://jpfhir.jp/fhir/Common/CodeSystem/doc-typecodes",
                "display": "診療情報提供書"
              }
            ]
          }
        ],
        "subject": {
          "reference": "urn:uuid:b11e2fca-a64f-45b2-aba8-3d1fb9dd86f1",
          "type": "Patient",
          "display": "患者リソースPatient"
        },
        "encounter": {
          "reference": "urn:uuid:d9d64743-52f2-4ea2-bf0c-c1e9ff07bdd1",
          "type": "Encounter",
          "display": "受診Encounterリソース"
        },
        "date": "2020-08-21T12:12:20+09:00",
        "author": [
          {
            "reference": "urn:uuid:78dc5b01-58c2-4b64-8db0-c4bda37bc1f4",
            "type": "Practitioner",
            "display": "紹介状作成者PractitionerRoleリソース"
          },
          {
            "reference": "urn:uuid:64e7c9b4-1ee8-49b9-933b-0780d6834132",
            "type": "Organization",
            "display": "紹介状作成機関Organizationリソース"
          }
        ],
        "title": "診療情報提供書",
        "custodian": {
          "reference": "urn:uuid:64e7c9b4-1ee8-49b9-933b-0780d6834132",
          "type": "Organization",
          "display": "紹介状交付責任機関Organizationリソース"
        },
        "event": [
          {
            "code": [
              {
                "text": "診療情報提供書発行"
              }
            ],
            "period": {
              "start": "2020-08-21"
            }
          }
        ],
        "section": [
          {
            "title": "紹介先情報",
            "code": {
              "coding": [
                {
                  "code": "910",
                  "system": "http://jpfhir.jp/fhir/eReferral/CodeSystem/document-section",
                  "display": "紹介先情報セクション"
                }
              ]
            },
            "text": {
              "status": "additional",
              "div": "<div xmlns=\"http://www.w3.org/1999/xhtml\">東京第一テスト病院</div>"
            },
            "entry": [
              {
                "reference": "urn:uuid:928e8817-6a30-4676-b5be-c8c240b24738",
                "type": "Organization",
                "display": "紹介先医療機関"
              },
              {
                "reference": "urn:uuid:7488ebe6-e2e2-4c7c-a23c-433eece9188d",
                "type": "Organization",
                "display": "紹介先診療科"
              },
              {
                "reference": "urn:uuid:7df5692d-1f70-44b7-8958-d4b3260e6b2c",
                "type": "Practitioner",
                "display": "紹介先医師"
              }
            ]
          },
          {
            "title": "紹介元情報",
            "code": {
              "coding": [
                {
                  "code": "920",
                  "system": "http://jpfhir.jp/fhir/eReferral/CodeSystem/document-section",
                  "display": "紹介元情報セクション"
                }
              ]
            },
            "text": {
              "status": "additional",
              "div": "<div xmlns=\"http://www.w3.org/1999/xhtml\">港診療所</div>"
            },
            "entry": [
              {
                "reference": "urn:uuid:64e7c9b4-1ee8-49b9-933b-0780d6834132",
                "type": "Organization",
                "display": "紹介元医療機関"
              },
              {
                "reference": "urn:uuid:03245d0f-e6eb-44d6-a8cc-54458a8db4a4",
                "type": "Organization",
                "display": "紹介元診療科"
              },
              {
                "reference": "urn:uuid:78dc5b01-58c2-4b64-8db0-c4bda37bc1f4",
                "type": "Practitioner",
                "display": "紹介元医師"
              }
            ]
          },
          {
            "title": "構造情報",
            "code": {
              "coding": [
                {
                  "code": "300",
                  "system": "http://jpfhir.jp/fhir/eReferral/CodeSystem/document-section",
                  "display": "構造情報セクション"
                }
              ]
            },
            "section": [
              {
                "title": "紹介目的",
                "code": {
                  "coding": [
                    {
                      "code": "950",
                      "system": "http://jpfhir.jp/fhir/eReferral/CodeSystem/document-section",
                      "display": "紹介目的セクション"
                    }
                  ]
                },
                "text": {
                  "status": "additional",
                  "div": "<div xmlns=\"http://www.w3.org/1999/xhtml\">腹痛精査お願いします。</div>"
                },
                "entry": [
                  {
                    "reference": "urn:uuid:b4503d76-f073-4631-8714-fdb9f19eb0da",
                    "type": "Encounter",
                    "display": "紹介目的"
                  }
                ]
              },
              {
                "title": "傷病名・主訴",
                "code": {
                  "coding": [
                    {
                      "code": "340",
                      "system": "http://jpfhir.jp/fhir/eReferral/CodeSystem/document-section",
                      "display": "傷病名・主訴セクション"
                    }
                  ]
                },
                "text": {
                  "status": "additional",
                  "div": "<div xmlns=\"http://www.w3.org/1999/xhtml\">上腹部痛、腰痛</div>"
                },
                "entry": [
                  {
                    "reference": "urn:uuid:f98f4149-81a0-47e2-94f8-dada91f4a76d",
                    "type": "Condition",
                    "display": "傷病名・主訴"
                  },
                  {
                    "reference": "urn:uuid:c481759a-2d27-4b1f-b092-18f035bc1e87",
                    "type": "Condition",
                    "display": "傷病名・主訴"
                  }
                ]
              },
              {
                "title": "現病歴",
                "code": {
                  "coding": [
                    {
                      "code": "360",
                      "system": "http://jpfhir.jp/fhir/eReferral/CodeSystem/document-section",
                      "display": "現病歴セクション"
                    }
                  ]
                },
                "text": {
                  "status": "additional",
                  "div": "<div xmlns=\"http://www.w3.org/1999/xhtml\">２０２２年６月上旬から夜食後に時々上腹部痛があり、だんだんひどくなっている。他に目立った症状なし。</div>"
                },
                "entry": [
                  {
                    "reference": "urn:uuid:c9800289-c983-4a09-a948-caa14aea4d9e",
                    "type": "Condition",
                    "display": "現病歴"
                  }
                ]
              },
              {
                "title": "既往歴",
                "code": {
                  "coding": [
                    {
                      "code": "370",
                      "system": "http://jpfhir.jp/fhir/eReferral/CodeSystem/document-section",
                      "display": "既往歴セクション"
                    }
                  ]
                },
                "text": {
                  "status": "additional",
                  "div": "<div xmlns=\"http://www.w3.org/1999/xhtml\">2018年　狭心症　２ヶ月治療で軽快。2019年　交通事故で左前腕骨折　３ヶ月ギプス固定。</div>"
                },
                "entry": [
                  {
                    "reference": "urn:uuid:63e74144-f400-4a12-98ed-c762f2365e27",
                    "type": "Condition",
                    "display": "既往歴"
                  },
                  {
                    "reference": "urn:uuid:5d02ceab-84a8-4cd9-8adb-55e499542b4c",
                    "type": "Condition",
                    "display": "既往歴"
                  }
                ]
              },
              {
                "title": "アレルギー・不耐性反応",
                "code": {
                  "coding": [
                    {
                      "code": "510",
                      "system": "http://jpfhir.jp/fhir/eReferral/CodeSystem/document-section",
                      "display": "アレルギー・不耐性反応セクション"
                    }
                  ]
                },
                "text": {
                  "status": "additional",
                  "div": "<div xmlns=\"http://www.w3.org/1999/xhtml\">サバ　キーウイ</div>"
                },
                "entry": [
                  {
                    "reference": "urn:uuid:006b9a2c-9a9f-4cef-869d-4af8e61d8b5e",
                    "type": "AllergyIntolerance",
                    "display": "アレルギー・不耐性反応"
                  },
                  {
                    "reference": "urn:uuid:287e31c0-5c68-4cbb-8a4e-7aa02f93a8cf",
                    "type": "AllergyIntolerance",
                    "display": "アレルギー・不耐性反応"
                  }
                ]
              },
              {
                "title": "家族歴",
                "code": {
                  "coding": [
                    {
                      "code": "550",
                      "system": "http://jpfhir.jp/fhir/eReferral/CodeSystem/document-section",
                      "display": "家族歴セクション"
                    }
                  ]
                },
                "text": {
                  "status": "additional",
                  "div": "<div xmlns=\"http://www.w3.org/1999/xhtml\">母　胃がん</div>"
                }
              },
              {
                "title": "身体所見",
                "code": {
                  "coding": [
                    {
                      "code": "610",
                      "system": "http://jpfhir.jp/fhir/eReferral/CodeSystem/document-section",
                      "display": "身体所見セクション"
                    }
                  ]
                },
                "text": {
                  "status": "additional",
                  "div": "<div xmlns=\"http://www.w3.org/1999/xhtml\">腹部所見：上腹部圧痛あり、その他特に所見なし。</div>"
                },
                "entry": [
                  {
                    "reference": "urn:uuid:4aeaaea0-9401-4d61-8616-844bc7a106bb",
                    "type": "Observation",
                    "display": "身体所見"
                  }
                ]
              },
              {
                "title": "感染症情報",
                "code": {
                  "coding": [
                    {
                      "code": "520",
                      "system": "http://jpfhir.jp/fhir/eReferral/CodeSystem/document-section",
                      "display": "感染症情報セクション"
                    }
                  ]
                },
                "text": {
                  "status": "additional",
                  "div": "<div xmlns=\"http://www.w3.org/1999/xhtml\">特になし</div>"
                }
              },
              {
                "title": "臨床経過",
                "code": {
                  "coding": [
                    {
                      "code": "330",
                      "system": "http://jpfhir.jp/fhir/eReferral/CodeSystem/document-section",
                      "display": "臨床経過セクション"
                    }
                  ]
                },
                "text": {
                  "status": "additional",
                  "div": "<div xmlns=\"http://www.w3.org/1999/xhtml\">添付参照</div>"
                },
                "entry": [
                  {
                    "reference": "urn:uuid:9ada2459-bee2-47b9-ac2f-6568d9d9157f",
                    "type": "DocumentReference",
                    "display": "臨床経過"
                  }
                ]
              }
            ]
          }
        ]
      }
    },
    {
      "fullUrl": "urn:uuid:b11e2fca-a64f-45b2-aba8-3d1fb9dd86f1",
      "resource": {
        "resourceType": "Patient",
        "id": "jppatientExample01",
        "meta": {
          "profile": [
            "http://jpfhir.jp/fhir/core/StructureDefinition/JP_Patient"
          ]
        },
        "identifier": [
          {
            "system": "urn:oid:1.2.392.200119.6.102.11234567890",
            "value": "12345"
          }
        ],
        "active": true,
        "name": [
          {
            "extension": [
              {
                "url": "http://hl7.org/fhir/StructureDefinition/iso21090-EN-representation",
                "valueCode": "IDE"
              }
            ],
            "use": "official",
            "text": "田中　太郎",
            "family": "田中",
            "given": [
              "太郎"
            ]
          },
          {
            "extension": [
              {
                "url": "http://hl7.org/fhir/StructureDefinition/iso21090-EN-representation",
                "valueCode": "SYL"
              }
            ],
            "use": "official",
            "text": "タナカ　タロウ",
            "family": "タナカ",
            "given": [
              "タロウ"
            ]
          }
        ],
        "telecom": [
          {
            "system": "phone",
            "value": "03-1234-5678",
            "use": "home"
          }
        ],
        "gender": "male",
        "birthDate": "1955-05-04",
        "address": [
          {
            "text": "神奈川県横浜市港区１－２－３",
            "postalCode": "123-4567",
            "country": "JP"
          }
        ]
      }
    },
    {
      "fullUrl": "urn:uuid:d9d64743-52f2-4ea2-bf0c-c1e9ff07bdd1",
      "resource": {
        "resourceType": "Encounter",
        "id": "encounterReferralExample01",
        "meta": {
          "profile": [
            "http://jpfhir.jp/fhir/core/StructureDefinition/JP_Encounter",
            "http://jpfhir.jp/fhir/eClinicalSummary/StructureDefinition/JP_Encounter_eClinicalSummary"
          ]
        },
        "identifier": [
          {
            "system": "http://jpfhir.jp/fhir/core/IdSystem/resourceInstance-identifier",
            "value": "192844"
          }
        ],
        "status": "finished",
        "class": {
          "system": "http://terminology.hl7.org/CodeSystem/v3-ActCode",
          "code": "AMB",
          "display": "外来"
        },
        "classHistory": [
          {
            "class": {
              "system": "http://terminology.hl7.org/CodeSystem/v3-ActCode",
              "code": "AMB",
              "display": "外来"
            },
            "period": {
              "start": "2020-08-20"
            }
          }
        ]
      }
    },
    {
      "fullUrl": "urn:uuid:78dc5b01-58c2-4b64-8db0-c4bda37bc1f4",
      "resource": {
        "resourceType": "Practitioner",
        "id": "referralFromPractitionerExample01",
        "meta": {
          "profile": [
            "http://jpfhir.jp/fhir/core/StructureDefinition/JP_Practitioner",
            "http://jpfhir.jp/fhir/eClinicalSummary/StructureDefinition/JP_Practitioner_eClinicalSummary"
          ]
        },
        "name": [
          {
            "extension": [
              {
                "url": "http://hl7.org/fhir/StructureDefinition/iso21090-EN-representation",
                "valueCode": "IDE"
              }
            ],
            "use": "official",
            "text": "大河内　勘三郎",
            "family": "大河内",
            "given": [
              "勘三郎"
            ]
          },
          {
            "extension": [
              {
                "url": "http://hl7.org/fhir/StructureDefinition/iso21090-EN-representation",
                "valueCode": "SYL"
              }
            ],
            "use": "official",
            "text": "オオコウチ　カンザブロウ",
            "family": "オオコウチ",
            "given": [
              "カンザブロウ"
            ]
          }
        ]
      }
    },
    {
      "fullUrl": "urn:uuid:7df5692d-1f70-44b7-8958-d4b3260e6b2c",
      "resource": {
        "resourceType": "Practitioner",
        "id": "referralToPractitionerExample01",
        "meta": {
          "profile": [
            "http://jpfhir.jp/fhir/core/StructureDefinition/JP_Practitioner",
            "http://jpfhir.jp/fhir/eClinicalSummary/StructureDefinition/JP_Practitioner_eClinicalSummary"
          ]
        },
        "name": [
          {
            "extension": [
              {
                "url": "http://hl7.org/fhir/StructureDefinition/iso21090-EN-representation",
                "valueCode": "IDE"
              }
            ],
            "use": "official",
            "text": "野口　英世丸",
            "family": "野口",
            "given": [
              "英世丸"
            ]
          },
          {
            "extension": [
              {
                "url": "http://hl7.org/fhir/StructureDefinition/iso21090-EN-representation",
                "valueCode": "SYL"
              }
            ],
            "use": "official",
            "text": "ノグチ　ヒデヨマル",
            "family": "ノグチ",
            "given": [
              "ヒデヨマル"
            ]
          }
        ]
      }
    },
    {
      "fullUrl": "urn:uuid:64e7c9b4-1ee8-49b9-933b-0780d6834132",
      "resource": {
        "resourceType": "Organization",
        "id": "referralFromOrganizaitonExample01",
        "meta": {
          "profile": [
            "http://jpfhir.jp/fhir/core/StructureDefinition/JP_Organization",
            "http://jpfhir.jp/fhir/eClinicalSummary/StructureDefinition/JP_Organization_eClinicalSummary_issuer"
          ]
        },
        "extension": [
          {
            "url": "http://jpfhir.jp/fhir/core/Extension/StructureDefinition/JP_Organization_PrefectureNo",
            "valueCoding": {
              "system": "urn:oid:1.2.392.100495.20.3.21",
              "code": "13"
            }
          },
          {
            "url": "http://jpfhir.jp/fhir/core/Extension/StructureDefinition/JP_Organization_InsuranceOrganizationCategory",
            "valueCoding": {
              "system": "urn:oid:1.2.392.100495.20.3.22",
              "code": "1"
            }
          },
          {
            "url": "http://jpfhir.jp/fhir/core/Extension/StructureDefinition/JP_Organization_InsuranceOrganizationNo",
            "valueIdentifier": {
              "system": "urn:oid:1.2.392.100495.20.3.23",
              "value": "9876543"
            }
          }
        ],
        "identifier": [
          {
            "system": "http://jpfhir.jp/fhir/core/IdSystem/insurance-medical-institution-no",
            "value": "1319876543"
          }
        ],
        "type": [
          {
            "coding": [
              {
                "system": "http://terminology.hl7.org/CodeSystem/organization-type",
                "code": "prov"
              }
            ]
          }
        ],
        "name": "港診療所",
        "telecom": [
          {
            "system": "phone",
            "value": "03-9876-5432"
          }
        ],
        "address": [
          {
            "text": "東京都港区新橋１−２−３",
            "postalCode": "106-9900",
            "country": "JP"
          }
        ]
      }
    },
    {
      "fullUrl": "urn:uuid:928e8817-6a30-4676-b5be-c8c240b24738",
      "resource": {
        "resourceType": "Organization",
        "id": "referralToOrganizaitonExample01",
        "meta": {
          "profile": [
            "http://jpfhir.jp/fhir/core/StructureDefinition/JP_Organization",
            "http://jpfhir.jp/fhir/eClinicalSummary/StructureDefinition/JP_Organization_eClinicalSummary_issuer"
          ]
        },
        "extension": [
          {
            "url": "http://jpfhir.jp/fhir/core/Extension/StructureDefinition/JP_Organization_PrefectureNo",
            "valueCoding": {
              "system": "urn:oid:1.2.392.100495.20.3.21",
              "code": "13"
            }
          },
          {
            "url": "http://jpfhir.jp/fhir/core/Extension/StructureDefinition/JP_Organization_InsuranceOrganizationCategory",
            "valueCoding": {
              "system": "urn:oid:1.2.392.100495.20.3.22",
              "code": "1"
            }
          },
          {
            "url": "http://jpfhir.jp/fhir/core/Extension/StructureDefinition/JP_Organization_InsuranceOrganizationNo",
            "valueIdentifier": {
              "system": "urn:oid:1.2.392.100495.20.3.23",
              "value": "1234567"
            }
          }
        ],
        "identifier": [
          {
            "system": "http://jpfhir.jp/fhir/core/IdSystem/insurance-medical-institution-no",
            "value": "1311234567"
          }
        ],
        "type": [
          {
            "coding": [
              {
                "system": "http://terminology.hl7.org/CodeSystem/organization-type",
                "code": "prov"
              }
            ]
          }
        ],
        "name": "東京第一テスト病院",
        "telecom": [
          {
            "system": "phone",
            "value": "03-1234-5678"
          }
        ],
        "address": [
          {
            "text": "東京都文京区文京町１−２−３",
            "postalCode": "113-0001",
            "country": "JP"
          }
        ]
      }
    },
    {
      "fullUrl": "urn:uuid:7488ebe6-e2e2-4c7c-a23c-433eece9188d",
      "resource": {
        "resourceType": "Organization",
        "id": "referralToOrganizaitonDeptExample01",
        "meta": {
          "profile": [
            "http://jpfhir.jp/fhir/core/StructureDefinition/JP_Organization",
            "http://jpfhir.jp/fhir/eClinicalSummary/StructureDefinition/JP_Organization_eClinicalSummary_departmentOfIssuer"
          ]
        },
        "type": [
          {
            "coding": [
              {
                "system": "http://terminology.hl7.org/CodeSystem/organization-type",
                "code": "dept"
              }
            ]
          },
          {
            "coding": [
              {
                "system": "urn:oid:1.2.392.100495.20.2.51",
                "code": "03"
              }
            ]
          }
        ],
        "name": "循環器内科",
        "partOf": {
          "reference": "urn:uuid:7488ebe6-e2e2-4c7c-a23c-433eece9188d"
        }
      }
    },
    {
      "fullUrl": "urn:uuid:03245d0f-e6eb-44d6-a8cc-54458a8db4a4",
      "resource": {
        "resourceType": "Organization",
        "id": "referralFromOrganizaitonDeptExample01",
        "meta": {
          "profile": [
            "http://jpfhir.jp/fhir/core/StructureDefinition/JP_Organization",
            "http://jpfhir.jp/fhir/eClinicalSummary/StructureDefinition/JP_Organization_eClinicalSummary_departmentOfIssuer"
          ]
        },
        "type": [
          {
            "coding": [
              {
                "system": "http://terminology.hl7.org/CodeSystem/organization-type",
                "code": "dept"
              }
            ]
          },
          {
            "coding": [
              {
                "system": "urn:oid:1.2.392.100495.20.2.51",
                "code": "11"
              }
            ]
          }
        ],
        "name": "眼科",
        "partOf": {
          "reference": "urn:uuid:03245d0f-e6eb-44d6-a8cc-54458a8db4a4"
        }
      }
    },
    {
      "fullUrl": "urn:uuid:b4503d76-f073-4631-8714-fdb9f19eb0da",
      "resource": {
        "resourceType": "Encounter",
        "id": "purposeReferralExample01",
        "meta": {
          "profile": [
            "http://jpfhir.jp/fhir/core/StructureDefinition/JP_Encounter",
            "http://jpfhir.jp/fhir/eClinicalSummary/StructureDefinition/JP_Encounter_eClinicalSummary"
          ]
        },
        "identifier": [
          {
            "system": "http://jpfhir.jp/fhir/core/IdSystem/resourceInstance-identifier",
            "value": "192837"
          }
        ],
        "status": "finished",
        "class": {
          "system": "http://terminology.hl7.org/CodeSystem/v3-ActCode",
          "code": "AMB",
          "display": "外来"
        },
        "reasonCode": [
          {
            "text": "腹痛精査お願いします。"
          }
        ]
      }
    },
    {
      "fullUrl": "urn:uuid:f98f4149-81a0-47e2-94f8-dada91f4a76d",
      "resource": {
        "resourceType": "Condition",
        "id": "cc1ReferralExample01",
        "meta": {
          "profile": [
            "http://jpfhir.jp/fhir/core/StructureDefinition/JP_Condition",
            "http://jpfhir.jp/fhir/eClinicalSummary/StructureDefinition/JP_Condition_eClinicalSummary"
          ]
        },
        "identifier": [
          {
            "system": "http://jpfhir.jp/fhir/core/IdSystem/resourceInstance-identifier",
            "value": "192837-01"
          }
        ],
        "clinicalStatus": {
          "coding": [
            {
              "code": "active",
              "system": "http://terminology.hl7.org/CodeSystem/condition-clinical"
            }
          ]
        },
        "category": [
          {
            "coding": [
              {
                "code": "problem-list-item",
                "system": "http://terminology.hl7.org/CodeSystem/condition-category"
              }
            ]
          }
        ],
        "code": {
          "text": "上腹部痛"
        },
        "subject": {
          "reference": "urn:uuid:b11e2fca-a64f-45b2-aba8-3d1fb9dd86f1"
        },
        "onsetDateTime": "2022-06-09"
      }
    },
    {
      "fullUrl": "urn:uuid:c481759a-2d27-4b1f-b092-18f035bc1e87",
      "resource": {
        "resourceType": "Condition",
        "id": "cc2ReferralExample01",
        "meta": {
          "profile": [
            "http://jpfhir.jp/fhir/core/StructureDefinition/JP_Condition",
            "http://jpfhir.jp/fhir/eClinicalSummary/StructureDefinition/JP_Condition_eClinicalSummary"
          ]
        },
        "identifier": [
          {
            "system": "http://jpfhir.jp/fhir/core/IdSystem/resourceInstance-identifier",
            "value": "192837-02"
          }
        ],
        "clinicalStatus": {
          "coding": [
            {
              "code": "active",
              "system": "http://terminology.hl7.org/CodeSystem/condition-clinical"
            }
          ]
        },
        "category": [
          {
            "coding": [
              {
                "code": "problem-list-item",
                "system": "http://terminology.hl7.org/CodeSystem/condition-category"
              }
            ]
          }
        ],
        "code": {
          "text": "腰痛"
        },
        "subject": {
          "reference": "urn:uuid:b11e2fca-a64f-45b2-aba8-3d1fb9dd86f1"
        },
        "onsetDateTime": "2022-05"
      }
    },
    {
      "fullUrl": "urn:uuid:c9800289-c983-4a09-a948-caa14aea4d9e",
      "resource": {
        "resourceType": "Condition",
        "id": "piReferralExample01",
        "meta": {
          "profile": [
            "http://jpfhir.jp/fhir/core/StructureDefinition/JP_Condition",
            "http://jpfhir.jp/fhir/eClinicalSummary/StructureDefinition/JP_Condition_eClinicalSummary"
          ]
        },
        "identifier": [
          {
            "system": "http://jpfhir.jp/fhir/core/IdSystem/resourceInstance-identifier",
            "value": "192838"
          }
        ],
        "clinicalStatus": {
          "coding": [
            {
              "code": "active",
              "system": "http://terminology.hl7.org/CodeSystem/condition-clinical"
            }
          ]
        },
        "category": [
          {
            "coding": [
              {
                "code": "problem-list-item",
                "system": "http://terminology.hl7.org/CodeSystem/condition-category"
              }
            ]
          }
        ],
        "code": {
          "text": "上腹部痛"
        },
        "subject": {
          "reference": "urn:uuid:b11e2fca-a64f-45b2-aba8-3d1fb9dd86f1"
        },
        "note": [
          {
            "text": "２０２２年６月上旬から夜食後に時々上腹部痛があり、だんだんひどくなっている。他に目立った症状なし。"
          }
        ]
      }
    },
    {
      "fullUrl": "urn:uuid:63e74144-f400-4a12-98ed-c762f2365e27",
      "resource": {
        "resourceType": "Condition",
        "id": "ph1ReferralExample01",
        "meta": {
          "profile": [
            "http://jpfhir.jp/fhir/core/StructureDefinition/JP_Condition",
            "http://jpfhir.jp/fhir/eClinicalSummary/StructureDefinition/JP_Condition_eClinicalSummary"
          ]
        },
        "identifier": [
          {
            "system": "http://jpfhir.jp/fhir/core/IdSystem/resourceInstance-identifier",
            "value": "192839-01"
          }
        ],
        "clinicalStatus": {
          "coding": [
            {
              "code": "active",
              "system": "http://terminology.hl7.org/CodeSystem/condition-clinical"
            }
          ]
        },
        "category": [
          {
            "coding": [
              {
                "code": "problem-list-item",
                "system": "http://terminology.hl7.org/CodeSystem/condition-category"
              }
            ]
          }
        ],
        "code": {
          "text": "狭心症"
        },
        "subject": {
          "reference": "urn:uuid:b11e2fca-a64f-45b2-aba8-3d1fb9dd86f1"
        },
        "onsetDateTime": "2018",
        "note": [
          {
            "text": "2018年　狭心症　２ヶ月治療で軽快。"
          }
        ]
      }
    },
    {
      "fullUrl": "urn:uuid:5d02ceab-84a8-4cd9-8adb-55e499542b4c",
      "resource": {
        "resourceType": "Condition",
        "id": "ph2ReferralExample01",
        "meta": {
          "profile": [
            "http://jpfhir.jp/fhir/core/StructureDefinition/JP_Condition",
            "http://jpfhir.jp/fhir/eClinicalSummary/StructureDefinition/JP_Condition_eClinicalSummary"
          ]
        },
        "identifier": [
          {
            "system": "http://jpfhir.jp/fhir/core/IdSystem/resourceInstance-identifier",
            "value": "192839-02"
          }
        ],
        "clinicalStatus": {
          "coding": [
            {
              "code": "active",
              "system": "http://terminology.hl7.org/CodeSystem/condition-clinical"
            }
          ]
        },
        "category": [
          {
            "coding": [
              {
                "code": "problem-list-item",
                "system": "http://terminology.hl7.org/CodeSystem/condition-category"
              }
            ]
          }
        ],
        "code": {
          "text": "左前腕骨折"
        },
        "subject": {
          "reference": "urn:uuid:b11e2fca-a64f-45b2-aba8-3d1fb9dd86f1"
        },
        "onsetDateTime": "2019",
        "note": [
          {
            "text": "交通事故で左前腕骨折　３ヶ月ギプス固定。"
          }
        ]
      }
    },
    {
      "fullUrl": "urn:uuid:006b9a2c-9a9f-4cef-869d-4af8e61d8b5e",
      "resource": {
        "resourceType": "AllergyIntolerance",
        "id": "alg1ReferralExample01",
        "meta": {
          "profile": [
            "http://jpfhir.jp/fhir/core/StructureDefinition/JP_AllergyIntolerance",
            "http://jpfhir.jp/fhir/eClinicalSummary/StructureDefinition/JP_AllergyIntolerance_eClinicalSummary"
          ]
        },
        "identifier": [
          {
            "system": "http://jpfhir.jp/fhir/core/IdSystem/resourceInstance-identifier",
            "value": "102934701"
          }
        ],
        "clinicalStatus": {
          "coding": [
            {
              "code": "active",
              "system": "http://terminology.hl7.org/CodeSystem/allergyintolerance-clinical"
            }
          ]
        },
        "type": "allergy",
        "category": [
          "food"
        ],
        "criticality": "unable-to-assess",
        "code": {
          "text": "サバ"
        },
        "patient": {
          "reference": "urn:uuid:b11e2fca-a64f-45b2-aba8-3d1fb9dd86f1"
        },
        "encounter": {
          "reference": "urn:uuid:d9d64743-52f2-4ea2-bf0c-c1e9ff07bdd1"
        },
        "onsetAge": {
          "system": "http://unitsofmeasure.org",
          "value": 30,
          "code": "a"
        },
        "note": [
          {
            "text": "サバ食後３時間ほどで全身に発疹と腹痛あり"
          }
        ]
      }
    },
    {
      "fullUrl": "urn:uuid:287e31c0-5c68-4cbb-8a4e-7aa02f93a8cf",
      "resource": {
        "resourceType": "AllergyIntolerance",
        "id": "alg1ReferralExample02",
        "meta": {
          "profile": [
            "http://jpfhir.jp/fhir/core/StructureDefinition/JP_AllergyIntolerance",
            "http://jpfhir.jp/fhir/eClinicalSummary/StructureDefinition/JP_AllergyIntolerance_eClinicalSummary"
          ]
        },
        "identifier": [
          {
            "system": "http://jpfhir.jp/fhir/core/IdSystem/resourceInstance-identifier",
            "value": "102934701"
          }
        ],
        "clinicalStatus": {
          "coding": [
            {
              "code": "active",
              "system": "http://terminology.hl7.org/CodeSystem/allergyintolerance-clinical"
            }
          ]
        },
        "type": "allergy",
        "category": [
          "food"
        ],
        "criticality": "unable-to-assess",
        "code": {
          "text": "キーウイ"
        },
        "patient": {
          "reference": "urn:uuid:b11e2fca-a64f-45b2-aba8-3d1fb9dd86f1"
        },
        "encounter": {
          "reference": "urn:uuid:d9d64743-52f2-4ea2-bf0c-c1e9ff07bdd1"
        },
        "onsetAge": {
          "system": "http://unitsofmeasure.org",
          "value": 10,
          "code": "a"
        },
        "note": [
          {
            "text": "食べると口の周りが痺れる感じ"
          }
        ]
      }
    },
    {
      "fullUrl": "urn:uuid:4aeaaea0-9401-4d61-8616-844bc7a106bb",
      "resource": {
        "resourceType": "Observation",
        "id": "psobsCommonExample01",
        "meta": {
          "profile": [
            "http://jpfhir.jp/fhir/core/StructureDefinition/JP_Observation_Common"
          ]
        },
        "identifier": [
          {
            "system": "http://jpfhir.jp/fhir/core/IdSystem/resourceInstance-identifier",
            "value": "192837"
          }
        ],
        "status": "final",
        "category": [
          {
            "coding": [
              {
                "code": "exam",
                "system": "http://terminology.hl7.org/CodeSystem/observation-category",
                "display": "身体検査・観察"
              }
            ]
          }
        ],
        "code": {
          "text": "腹部所見"
        },
        "subject": {
          "reference": "urn:uuid:b11e2fca-a64f-45b2-aba8-3d1fb9dd86f1"
        },
        "valueString": "上腹部圧痛あり、その他特に所見なし。"
      }
    },
    {
      "fullUrl": "urn:uuid:9ada2459-bee2-47b9-ac2f-6568d9d9157f",
      "resource": {
        "resourceType": "DocumentReference",
        "id": "ccourseReferralExample01",
        "meta": {
          "profile": [
            "http://jpfhir.jp/fhir/core/StructureDefinition/JP_DocumentReference",
            "http://jpfhir.jp/fhir/eClinicalSummary/StructureDefinition/JP_DocumentReference_eClinicalSummary"
          ]
        },
        "status": "current",
        "type": {
          "coding": [
            {
              "system": "http://loinc.org",
              "code": "11506-3",
              "display": "Progress note"
            }
          ]
        },
        "description": "臨床経過",
        "content": [
          {
            "attachment": {
              "contentType": "text/plain;charset=UTF-8",
              "data": ""
            }
          }
        ]
      }
    }
  ]
}
