{
  "resourceType": "Bundle",
  "id": "bundleReferralExample01",
  "meta": {
    "profile": [
      "http://jpfhir.jp/fhir/eReferral/StructureDefinition/JP_Bundle_eReferral"
    ]
  },
  "identifier": {
    "system": "http://jpfhir.jp/fhir/core/IdSystem/documentInstance-identifier",
    "value": "123456"
  },
  "type": "document",
  "timestamp": "2021-11-26T10:00:00+09:00",
  "entry": [
    {
      "fullUrl": "urn:uuid:f37eee78-59a6-4f07-a185-446eba6514b5",
      "resource": {
        "resourceType": "Composition",
        "id": "compositionReferralExample01Inline",
        "meta": {
          "profile": [
            "http://jpfhir.jp/fhir/eReferral/StructureDefinition/JP_Composition_eReferral"
          ]
        },
        "extension": [
          {
            "url": "http://hl7.org/fhir/StructureDefinition/composition-clinicaldocument-versionNumber",
            "valueString": "ARGcode"
          }
        ],
        "identifier": {
          "system": "http://jpfhir.jp/fhir/core/IdSystem/resourceInstance-identifier",
          "value": "ARGcode"
        },
        "status": "final",
        "type": {
          "coding": [
            {
              "code": "57133-1",
              "system": "http://jpfhir.jp/fhir/Common/CodeSystem/doc-typecodes",
              "display": "診療情報提供書"
            }
          ]
        },
        "category": [
          {
            "coding": [
              {
                "code": "57133-1",
                "system": "http://jpfhir.jp/fhir/Common/CodeSystem/doc-typecodes",
                "display": "診療情報提供書"
              }
            ]
          }
        ],
        "subject": {
          "reference": "urn:uuid:1f2f6840-c8b5-4c2b-bbc7-012efa46ba32",
          "type": "Patient",
          "display": "患者リソースPatient"
        },
        "encounter": {
          "reference": "urn:uuid:920888d0-2c14-49a9-a1c1-7091fa8ad53b",
          "type": "Encounter",
          "display": "受診Encounterリソース"
        },
        "date": "2020-08-21T12:12:20+09:00",
        "author": [
          {
            "reference": "urn:uuid:60cbfdb9-1a78-4bcb-ad8d-6c70dd270edf",
            "type": "Practitioner",
            "display": "紹介状作成者PractitionerRoleリソース"
          },
          {
            "reference": "urn:uuid:511ca58b-9fdc-4050-ad1e-f8e33549fb39",
            "type": "Organization",
            "display": "紹介状作成機関Organizationリソース"
          }
        ],
        "title": "診療情報提供書",
        "custodian": {
          "reference": "urn:uuid:511ca58b-9fdc-4050-ad1e-f8e33549fb39",
          "type": "Organization",
          "display": "紹介状交付責任機関Organizationリソース"
        },
        "event": [
          {
            "code": [
              {
                "text": "診療情報提供書発行"
              }
            ],
            "period": {
              "start": "2020-08-21"
            }
          }
        ],
        "section": [
          {
            "title": "紹介先情報",
            "code": {
              "coding": [
                {
                  "code": "910",
                  "system": "http://jpfhir.jp/fhir/eReferral/CodeSystem/document-section",
                  "display": "紹介先情報セクション"
                }
              ]
            },
            "text": {
              "status": "additional",
              "div": "<div xmlns=\"http://www.w3.org/1999/xhtml\">東京第一テスト病院</div>"
            },
            "entry": [
              {
                "reference": "urn:uuid:045de25f-2073-464b-982d-0ed0c422ae56",
                "type": "Organization",
                "display": "紹介先医療機関"
              },
              {
                "reference": "urn:uuid:aae567ca-b98a-4015-96dd-fa0496036a64",
                "type": "Organization",
                "display": "紹介先診療科"
              },
              {
                "reference": "urn:uuid:ff280917-5a72-44e1-89ae-f6c5721a6a4d",
                "type": "Practitioner",
                "display": "紹介先医師"
              }
            ]
          },
          {
            "title": "紹介元情報",
            "code": {
              "coding": [
                {
                  "code": "920",
                  "system": "http://jpfhir.jp/fhir/eReferral/CodeSystem/document-section",
                  "display": "紹介元情報セクション"
                }
              ]
            },
            "text": {
              "status": "additional",
              "div": "<div xmlns=\"http://www.w3.org/1999/xhtml\">港診療所</div>"
            },
            "entry": [
              {
                "reference": "urn:uuid:511ca58b-9fdc-4050-ad1e-f8e33549fb39",
                "type": "Organization",
                "display": "紹介元医療機関"
              },
              {
                "reference": "urn:uuid:45406486-ab8b-4524-acc9-88ed2949db27",
                "type": "Organization",
                "display": "紹介元診療科"
              },
              {
                "reference": "urn:uuid:60cbfdb9-1a78-4bcb-ad8d-6c70dd270edf",
                "type": "Practitioner",
                "display": "紹介元医師"
              }
            ]
          },
          {
            "title": "構造情報",
            "code": {
              "coding": [
                {
                  "code": "300",
                  "system": "http://jpfhir.jp/fhir/eReferral/CodeSystem/document-section",
                  "display": "構造情報セクション"
                }
              ]
            },
            "section": [
              {
                "title": "紹介目的",
                "code": {
                  "coding": [
                    {
                      "code": "950",
                      "system": "http://jpfhir.jp/fhir/eReferral/CodeSystem/document-section",
                      "display": "紹介目的セクション"
                    }
                  ]
                },
                "text": {
                  "status": "additional",
                  "div": "<div xmlns=\"http://www.w3.org/1999/xhtml\">腹痛精査お願いします。</div>"
                },
                "entry": [
                  {
                    "reference": "urn:uuid:3051593d-2d17-47f5-b094-0f6f03dba097",
                    "type": "Encounter",
                    "display": "紹介目的"
                  }
                ]
              },
              {
                "title": "傷病名・主訴",
                "code": {
                  "coding": [
                    {
                      "code": "340",
                      "system": "http://jpfhir.jp/fhir/eReferral/CodeSystem/document-section",
                      "display": "傷病名・主訴セクション"
                    }
                  ]
                },
                "text": {
                  "status": "additional",
                  "div": "<div xmlns=\"http://www.w3.org/1999/xhtml\">上腹部痛、腰痛</div>"
                },
                "entry": [
                  {
                    "reference": "urn:uuid:a3a48022-5f84-443e-afb3-dec222dcbec3",
                    "type": "Condition",
                    "display": "傷病名・主訴"
                  },
                  {
                    "reference": "urn:uuid:39d7c85a-56af-4ed2-a0ff-33afc3298849",
                    "type": "Condition",
                    "display": "傷病名・主訴"
                  }
                ]
              },
              {
                "title": "現病歴",
                "code": {
                  "coding": [
                    {
                      "code": "360",
                      "system": "http://jpfhir.jp/fhir/eReferral/CodeSystem/document-section",
                      "display": "現病歴セクション"
                    }
                  ]
                },
                "text": {
                  "status": "additional",
                  "div": "<div xmlns=\"http://www.w3.org/1999/xhtml\">２０２２年６月上旬から夜食後に時々上腹部痛があり、だんだんひどくなっている。他に目立った症状なし。</div>"
                },
                "entry": [
                  {
                    "reference": "urn:uuid:2b8e9d71-44eb-46d9-88ea-96e9a0465da2",
                    "type": "Condition",
                    "display": "現病歴"
                  }
                ]
              },
              {
                "title": "既往歴",
                "code": {
                  "coding": [
                    {
                      "code": "370",
                      "system": "http://jpfhir.jp/fhir/eReferral/CodeSystem/document-section",
                      "display": "既往歴セクション"
                    }
                  ]
                },
                "text": {
                  "status": "additional",
                  "div": "<div xmlns=\"http://www.w3.org/1999/xhtml\">2018年　狭心症　２ヶ月治療で軽快。2019年　交通事故で左前腕骨折　３ヶ月ギプス固定。</div>"
                },
                "entry": [
                  {
                    "reference": "urn:uuid:3d98fb27-0847-4ddc-993c-b00d0a54f53e",
                    "type": "Condition",
                    "display": "既往歴"
                  },
                  {
                    "reference": "urn:uuid:7f3c8060-9639-41d7-9446-fa1c7bc4142c",
                    "type": "Condition",
                    "display": "既往歴"
                  }
                ]
              },
              {
                "title": "アレルギー・不耐性反応",
                "code": {
                  "coding": [
                    {
                      "code": "510",
                      "system": "http://jpfhir.jp/fhir/eReferral/CodeSystem/document-section",
                      "display": "アレルギー・不耐性反応セクション"
                    }
                  ]
                },
                "text": {
                  "status": "additional",
                  "div": "<div xmlns=\"http://www.w3.org/1999/xhtml\">サバ　キーウイ</div>"
                },
                "entry": [
                  {
                    "reference": "urn:uuid:627082c8-103a-469f-9929-deec8c85dcf0",
                    "type": "AllergyIntolerance",
                    "display": "アレルギー・不耐性反応"
                  },
                  {
                    "reference": "urn:uuid:627082c8-103a-469f-9929-deec8c85dcf0",
                    "type": "AllergyIntolerance",
                    "display": "アレルギー・不耐性反応"
                  }
                ]
              },
              {
                "title": "家族歴",
                "code": {
                  "coding": [
                    {
                      "code": "550",
                      "system": "http://jpfhir.jp/fhir/eReferral/CodeSystem/document-section",
                      "display": "家族歴セクション"
                    }
                  ]
                },
                "text": {
                  "status": "additional",
                  "div": "<div xmlns=\"http://www.w3.org/1999/xhtml\">母　胃がん</div>"
                }
              },
              {
                "title": "身体所見",
                "code": {
                  "coding": [
                    {
                      "code": "610",
                      "system": "http://jpfhir.jp/fhir/eReferral/CodeSystem/document-section",
                      "display": "身体所見セクション"
                    }
                  ]
                },
                "text": {
                  "status": "additional",
                  "div": "<div xmlns=\"http://www.w3.org/1999/xhtml\">腹部所見：上腹部圧痛あり、その他特に所見なし。</div>"
                },
                "entry": [
                  {
                    "reference": "urn:uuid:114e24ca-5a92-4d35-a69f-b999f83976e9",
                    "type": "Observation",
                    "display": "身体所見"
                  }
                ]
              },
              {
                "title": "感染症情報",
                "code": {
                  "coding": [
                    {
                      "code": "520",
                      "system": "http://jpfhir.jp/fhir/eReferral/CodeSystem/document-section",
                      "display": "感染症情報セクション"
                    }
                  ]
                },
                "text": {
                  "status": "additional",
                  "div": "<div xmlns=\"http://www.w3.org/1999/xhtml\">特になし</div>"
                }
              },
              {
                "title": "臨床経過",
                "code": {
                  "coding": [
                    {
                      "code": "330",
                      "system": "http://jpfhir.jp/fhir/eReferral/CodeSystem/document-section",
                      "display": "臨床経過セクション"
                    }
                  ]
                },
                "text": {
                  "status": "additional",
                  "div": "<div xmlns=\"http://www.w3.org/1999/xhtml\">添付参照</div>"
                },
                "entry": [
                  {
                    "reference": "urn:uuid:342f9708-cf98-4d36-9d5f-53c80f4bb269",
                    "type": "DocumentReference",
                    "display": "臨床経過"
                  }
                ]
              }
            ]
          }
        ]
      }
    },
    {
      "fullUrl": "urn:uuid:1f2f6840-c8b5-4c2b-bbc7-012efa46ba32",
      "resource": {
        "resourceType": "Patient",
        "id": "jppatientExample01Inline",
        "meta": {
          "profile": [
            "http://jpfhir.jp/fhir/core/StructureDefinition/JP_Patient"
          ]
        },
        "identifier": [
          {
            "system": "urn:oid:1.2.392.200119.6.102.11234567890",
            "value": "12345"
          }
        ],
        "active": true,
        "name": [
          {
            "extension": [
              {
                "url": "http://hl7.org/fhir/StructureDefinition/iso21090-EN-representation",
                "valueCode": "IDE"
              }
            ],
            "use": "official",
            "text": "田中　太郎",
            "family": "田中",
            "given": [
              "太郎"
            ]
          },
          {
            "extension": [
              {
                "url": "http://hl7.org/fhir/StructureDefinition/iso21090-EN-representation",
                "valueCode": "SYL"
              }
            ],
            "use": "official",
            "text": "タナカ　タロウ",
            "family": "タナカ",
            "given": [
              "タロウ"
            ]
          }
        ],
        "telecom": [
          {
            "system": "phone",
            "value": "03-1234-5678",
            "use": "home"
          }
        ],
        "gender": "male",
        "birthDate": "1955-05-04",
        "address": [
          {
            "text": "神奈川県横浜市港区１－２－３",
            "postalCode": "123-4567",
            "country": "JP"
          }
        ]
      }
    },
    {
      "fullUrl": "urn:uuid:920888d0-2c14-49a9-a1c1-7091fa8ad53b",
      "resource": {
        "resourceType": "Encounter",
        "id": "encounterReferralExample01Inline",
        "meta": {
          "profile": [
            "http://jpfhir.jp/fhir/core/StructureDefinition/JP_Encounter",
            "http://jpfhir.jp/fhir/eClinicalSummary/StructureDefinition/JP_Encounter_eClinicalSummary"
          ]
        },
        "identifier": [
          {
            "system": "http://jpfhir.jp/fhir/core/IdSystem/resourceInstance-identifier",
            "value": "192844"
          }
        ],
        "status": "finished",
        "class": {
          "system": "http://terminology.hl7.org/CodeSystem/v3-ActCode",
          "code": "AMB",
          "display": "外来"
        },
        "classHistory": [
          {
            "class": {
              "system": "http://terminology.hl7.org/CodeSystem/v3-ActCode",
              "code": "AMB",
              "display": "外来"
            },
            "period": {
              "start": "2020-08-20"
            }
          }
        ]
      }
    },
    {
      "fullUrl": "urn:uuid:60cbfdb9-1a78-4bcb-ad8d-6c70dd270edf",
      "resource": {
        "resourceType": "Practitioner",
        "id": "referralFromPractitionerExample01Inline",
        "meta": {
          "profile": [
            "http://jpfhir.jp/fhir/core/StructureDefinition/JP_Practitioner",
            "http://jpfhir.jp/fhir/eClinicalSummary/StructureDefinition/JP_Practitioner_eClinicalSummary"
          ]
        },
        "name": [
          {
            "extension": [
              {
                "url": "http://hl7.org/fhir/StructureDefinition/iso21090-EN-representation",
                "valueCode": "IDE"
              }
            ],
            "use": "official",
            "text": "大河内　勘三郎",
            "family": "大河内",
            "given": [
              "勘三郎"
            ]
          },
          {
            "extension": [
              {
                "url": "http://hl7.org/fhir/StructureDefinition/iso21090-EN-representation",
                "valueCode": "SYL"
              }
            ],
            "use": "official",
            "text": "オオコウチ　カンザブロウ",
            "family": "オオコウチ",
            "given": [
              "カンザブロウ"
            ]
          }
        ]
      }
    },
    {
      "fullUrl": "urn:uuid:ff280917-5a72-44e1-89ae-f6c5721a6a4d",
      "resource": {
        "resourceType": "Practitioner",
        "id": "referralToPractitionerExample01Inline",
        "meta": {
          "profile": [
            "http://jpfhir.jp/fhir/core/StructureDefinition/JP_Practitioner",
            "http://jpfhir.jp/fhir/eClinicalSummary/StructureDefinition/JP_Practitioner_eClinicalSummary"
          ]
        },
        "name": [
          {
            "extension": [
              {
                "url": "http://hl7.org/fhir/StructureDefinition/iso21090-EN-representation",
                "valueCode": "IDE"
              }
            ],
            "use": "official",
            "text": "野口　英世丸",
            "family": "野口",
            "given": [
              "英世丸"
            ]
          },
          {
            "extension": [
              {
                "url": "http://hl7.org/fhir/StructureDefinition/iso21090-EN-representation",
                "valueCode": "SYL"
              }
            ],
            "use": "official",
            "text": "ノグチ　ヒデヨマル",
            "family": "ノグチ",
            "given": [
              "ヒデヨマル"
            ]
          }
        ]
      }
    },
    {
      "fullUrl": "urn:uuid:511ca58b-9fdc-4050-ad1e-f8e33549fb39",
      "resource": {
        "resourceType": "Organization",
        "id": "referralFromOrganizationExample01Inline",
        "meta": {
          "profile": [
            "http://jpfhir.jp/fhir/core/StructureDefinition/JP_Organization",
            "http://jpfhir.jp/fhir/eClinicalSummary/StructureDefinition/JP_Organization_eClinicalSummary"
          ]
        },
        "extension": [
          {
            "url": "http://jpfhir.jp/fhir/core/Extension/StructureDefinition/JP_Organization_PrefectureNo",
            "valueCoding": {
              "system": "urn:oid:1.2.392.100495.20.3.21",
              "code": "13"
            }
          },
          {
            "url": "http://jpfhir.jp/fhir/core/Extension/StructureDefinition/JP_Organization_InsuranceOrganizationCategory",
            "valueCoding": {
              "system": "urn:oid:1.2.392.100495.20.3.22",
              "code": "1"
            }
          },
          {
            "url": "http://jpfhir.jp/fhir/core/Extension/StructureDefinition/JP_Organization_InsuranceOrganizationNo",
            "valueIdentifier": {
              "system": "urn:oid:1.2.392.100495.20.3.23",
              "value": "9876543"
            }
          }
        ],
        "identifier": [
          {
            "system": "http://jpfhir.jp/fhir/core/IdSystem/insurance-medical-institution-no",
            "value": "1319876543"
          }
        ],
        "type": [
          {
            "coding": [
              {
                "system": "http://terminology.hl7.org/CodeSystem/organization-type",
                "code": "prov"
              }
            ]
          }
        ],
        "name": "港診療所",
        "telecom": [
          {
            "system": "phone",
            "value": "03-9876-5432"
          }
        ],
        "address": [
          {
            "text": "東京都港区新橋１−２−３",
            "postalCode": "106-9900",
            "country": "JP"
          }
        ]
      }
    },
    {
      "fullUrl": "urn:uuid:045de25f-2073-464b-982d-0ed0c422ae56",
      "resource": {
        "resourceType": "Organization",
        "id": "referralToOrganizationExample01Inline",
        "meta": {
          "profile": [
            "http://jpfhir.jp/fhir/core/StructureDefinition/JP_Organization",
            "http://jpfhir.jp/fhir/eClinicalSummary/StructureDefinition/JP_Organization_eClinicalSummary"
          ]
        },
        "extension": [
          {
            "url": "http://jpfhir.jp/fhir/core/Extension/StructureDefinition/JP_Organization_PrefectureNo",
            "valueCoding": {
              "system": "urn:oid:1.2.392.100495.20.3.21",
              "code": "13"
            }
          },
          {
            "url": "http://jpfhir.jp/fhir/core/Extension/StructureDefinition/JP_Organization_InsuranceOrganizationCategory",
            "valueCoding": {
              "system": "urn:oid:1.2.392.100495.20.3.22",
              "code": "1"
            }
          },
          {
            "url": "http://jpfhir.jp/fhir/core/Extension/StructureDefinition/JP_Organization_InsuranceOrganizationNo",
            "valueIdentifier": {
              "system": "urn:oid:1.2.392.100495.20.3.23",
              "value": "1234567"
            }
          }
        ],
        "identifier": [
          {
            "system": "http://jpfhir.jp/fhir/core/IdSystem/insurance-medical-institution-no",
            "value": "1311234567"
          }
        ],
        "type": [
          {
            "coding": [
              {
                "system": "http://terminology.hl7.org/CodeSystem/organization-type",
                "code": "prov"
              }
            ]
          }
        ],
        "name": "東京第一テスト病院",
        "telecom": [
          {
            "system": "phone",
            "value": "03-1234-5678"
          }
        ],
        "address": [
          {
            "text": "東京都文京区文京町１−２−３",
            "postalCode": "113-0001",
            "country": "JP"
          }
        ]
      }
    },
    {
      "fullUrl": "urn:uuid:aae567ca-b98a-4015-96dd-fa0496036a64",
      "resource": {
        "resourceType": "Organization",
        "id": "referralToOrganizationDeptExample01Inline",
        "meta": {
          "profile": [
            "http://jpfhir.jp/fhir/core/StructureDefinition/JP_Organization",
            "http://jpfhir.jp/fhir/eClinicalSummary/StructureDefinition/JP_Organization_eClinicalSummary_department"
          ]
        },
        "type": [
          {
            "coding": [
              {
                "system": "http://terminology.hl7.org/CodeSystem/organization-type",
                "code": "dept"
              }
            ]
          },
          {
            "coding": [
              {
                "system": "urn:oid:1.2.392.100495.20.2.51",
                "code": "03"
              }
            ]
          }
        ],
        "name": "循環器内科",
        "partOf": {
          "reference": "urn:uuid:aae567ca-b98a-4015-96dd-fa0496036a64"
        }
      }
    },
    {
      "fullUrl": "urn:uuid:45406486-ab8b-4524-acc9-88ed2949db27",
      "resource": {
        "resourceType": "Organization",
        "id": "referralFromOrganizationDeptExample01Inline",
        "meta": {
          "profile": [
            "http://jpfhir.jp/fhir/core/StructureDefinition/JP_Organization",
            "http://jpfhir.jp/fhir/eClinicalSummary/StructureDefinition/JP_Organization_eClinicalSummary_department"
          ]
        },
        "type": [
          {
            "coding": [
              {
                "system": "http://terminology.hl7.org/CodeSystem/organization-type",
                "code": "dept"
              }
            ]
          },
          {
            "coding": [
              {
                "system": "urn:oid:1.2.392.100495.20.2.51",
                "code": "11"
              }
            ]
          }
        ],
        "name": "眼科",
        "partOf": {
          "reference": "urn:uuid:45406486-ab8b-4524-acc9-88ed2949db27"
        }
      }
    },
    {
      "fullUrl": "urn:uuid:3051593d-2d17-47f5-b094-0f6f03dba097",
      "resource": {
        "resourceType": "Encounter",
        "id": "purposeReferralExample01Inline",
        "meta": {
          "profile": [
            "http://jpfhir.jp/fhir/core/StructureDefinition/JP_Encounter",
            "http://jpfhir.jp/fhir/eClinicalSummary/StructureDefinition/JP_Encounter_eClinicalSummary"
          ]
        },
        "identifier": [
          {
            "system": "http://jpfhir.jp/fhir/core/IdSystem/resourceInstance-identifier",
            "value": "192837"
          }
        ],
        "status": "finished",
        "class": {
          "system": "http://terminology.hl7.org/CodeSystem/v3-ActCode",
          "code": "AMB",
          "display": "外来"
        },
        "reasonCode": [
          {
            "text": "腹痛精査お願いします。"
          }
        ]
      }
    },
    {
      "fullUrl": "urn:uuid:a3a48022-5f84-443e-afb3-dec222dcbec3",
      "resource": {
        "resourceType": "Condition",
        "id": "cc1ReferralExample01Inline",
        "meta": {
          "profile": [
            "http://jpfhir.jp/fhir/core/StructureDefinition/JP_Condition",
            "http://jpfhir.jp/fhir/eClinicalSummary/StructureDefinition/JP_Condition_eClinicalSummary"
          ]
        },
        "identifier": [
          {
            "system": "http://jpfhir.jp/fhir/core/IdSystem/resourceInstance-identifier",
            "value": "192837-01"
          }
        ],
        "clinicalStatus": {
          "coding": [
            {
              "code": "active",
              "system": "http://terminology.hl7.org/CodeSystem/condition-clinical"
            }
          ]
        },
        "category": [
          {
            "coding": [
              {
                "code": "problem-list-item",
                "system": "http://terminology.hl7.org/CodeSystem/condition-category"
              }
            ]
          }
        ],
        "code": {
          "text": "上腹部痛"
        },
        "subject": {
          "reference": "urn:uuid:1f2f6840-c8b5-4c2b-bbc7-012efa46ba32"
        },
        "onsetDateTime": "2022-06-09"
      }
    },
    {
      "fullUrl": "urn:uuid:39d7c85a-56af-4ed2-a0ff-33afc3298849",
      "resource": {
        "resourceType": "Condition",
        "id": "cc2ReferralExample01Inline",
        "meta": {
          "profile": [
            "http://jpfhir.jp/fhir/core/StructureDefinition/JP_Condition",
            "http://jpfhir.jp/fhir/eClinicalSummary/StructureDefinition/JP_Condition_eClinicalSummary"
          ]
        },
        "identifier": [
          {
            "system": "http://jpfhir.jp/fhir/core/IdSystem/resourceInstance-identifier",
            "value": "192837-02"
          }
        ],
        "clinicalStatus": {
          "coding": [
            {
              "code": "active",
              "system": "http://terminology.hl7.org/CodeSystem/condition-clinical"
            }
          ]
        },
        "category": [
          {
            "coding": [
              {
                "code": "problem-list-item",
                "system": "http://terminology.hl7.org/CodeSystem/condition-category"
              }
            ]
          }
        ],
        "code": {
          "text": "腰痛"
        },
        "subject": {
          "reference": "urn:uuid:1f2f6840-c8b5-4c2b-bbc7-012efa46ba32"
        },
        "onsetDateTime": "2022-05"
      }
    },
    {
      "fullUrl": "urn:uuid:2b8e9d71-44eb-46d9-88ea-96e9a0465da2",
      "resource": {
        "resourceType": "Condition",
        "id": "piReferralExample01Inline",
        "meta": {
          "profile": [
            "http://jpfhir.jp/fhir/core/StructureDefinition/JP_Condition",
            "http://jpfhir.jp/fhir/eClinicalSummary/StructureDefinition/JP_Condition_eClinicalSummary"
          ]
        },
        "identifier": [
          {
            "system": "http://jpfhir.jp/fhir/core/IdSystem/resourceInstance-identifier",
            "value": "192838"
          }
        ],
        "clinicalStatus": {
          "coding": [
            {
              "code": "active",
              "system": "http://terminology.hl7.org/CodeSystem/condition-clinical"
            }
          ]
        },
        "category": [
          {
            "coding": [
              {
                "code": "problem-list-item",
                "system": "http://terminology.hl7.org/CodeSystem/condition-category"
              }
            ]
          }
        ],
        "code": {
          "text": "上腹部痛"
        },
        "subject": {
          "reference": "urn:uuid:1f2f6840-c8b5-4c2b-bbc7-012efa46ba32"
        },
        "note": [
          {
            "text": "２０２２年６月上旬から夜食後に時々上腹部痛があり、だんだんひどくなっている。他に目立った症状なし。"
          }
        ]
      }
    },
    {
      "fullUrl": "urn:uuid:3d98fb27-0847-4ddc-993c-b00d0a54f53e",
      "resource": {
        "resourceType": "Condition",
        "id": "ph1ReferralExample01Inline",
        "meta": {
          "profile": [
            "http://jpfhir.jp/fhir/core/StructureDefinition/JP_Condition",
            "http://jpfhir.jp/fhir/eClinicalSummary/StructureDefinition/JP_Condition_eClinicalSummary"
          ]
        },
        "identifier": [
          {
            "system": "http://jpfhir.jp/fhir/core/IdSystem/resourceInstance-identifier",
            "value": "192839-01"
          }
        ],
        "clinicalStatus": {
          "coding": [
            {
              "code": "active",
              "system": "http://terminology.hl7.org/CodeSystem/condition-clinical"
            }
          ]
        },
        "category": [
          {
            "coding": [
              {
                "code": "problem-list-item",
                "system": "http://terminology.hl7.org/CodeSystem/condition-category"
              }
            ]
          }
        ],
        "code": {
          "text": "狭心症"
        },
        "subject": {
          "reference": "urn:uuid:1f2f6840-c8b5-4c2b-bbc7-012efa46ba32"
        },
        "onsetDateTime": "2018",
        "note": [
          {
            "text": "2018年　狭心症　２ヶ月治療で軽快。"
          }
        ]
      }
    },
    {
      "fullUrl": "urn:uuid:7f3c8060-9639-41d7-9446-fa1c7bc4142c",
      "resource": {
        "resourceType": "Condition",
        "id": "ph2ReferralExample01Inline",
        "meta": {
          "profile": [
            "http://jpfhir.jp/fhir/core/StructureDefinition/JP_Condition",
            "http://jpfhir.jp/fhir/eClinicalSummary/StructureDefinition/JP_Condition_eClinicalSummary"
          ]
        },
        "identifier": [
          {
            "system": "http://jpfhir.jp/fhir/core/IdSystem/resourceInstance-identifier",
            "value": "192839-02"
          }
        ],
        "clinicalStatus": {
          "coding": [
            {
              "code": "active",
              "system": "http://terminology.hl7.org/CodeSystem/condition-clinical"
            }
          ]
        },
        "category": [
          {
            "coding": [
              {
                "code": "problem-list-item",
                "system": "http://terminology.hl7.org/CodeSystem/condition-category"
              }
            ]
          }
        ],
        "code": {
          "text": "左前腕骨折"
        },
        "subject": {
          "reference": "urn:uuid:1f2f6840-c8b5-4c2b-bbc7-012efa46ba32"
        },
        "onsetDateTime": "2019",
        "note": [
          {
            "text": "交通事故で左前腕骨折　３ヶ月ギプス固定。"
          }
        ]
      }
    },
    {
      "fullUrl": "urn:uuid:627082c8-103a-469f-9929-deec8c85dcf0",
      "resource": {
        "resourceType": "AllergyIntolerance",
        "id": "alg1ReferralExample01Inline",
        "meta": {
          "profile": [
            "http://jpfhir.jp/fhir/core/StructureDefinition/JP_AllergyIntolerance",
            "http://jpfhir.jp/fhir/eClinicalSummary/StructureDefinition/JP_AllergyIntolerance_eClinicalSummary"
          ]
        },
        "identifier": [
          {
            "system": "http://jpfhir.jp/fhir/core/IdSystem/resourceInstance-identifier",
            "value": "102934701"
          }
        ],
        "clinicalStatus": {
          "coding": [
            {
              "code": "active",
              "system": "http://terminology.hl7.org/CodeSystem/allergyintolerance-clinical"
            }
          ]
        },
        "type": "allergy",
        "category": [
          "food"
        ],
        "criticality": "unable-to-assess",
        "code": {
          "text": "サバ"
        },
        "patient": {
          "reference": "urn:uuid:1f2f6840-c8b5-4c2b-bbc7-012efa46ba32"
        },
        "encounter": {
          "reference": "urn:uuid:920888d0-2c14-49a9-a1c1-7091fa8ad53b"
        },
        "onsetAge": {
          "system": "http://unitsofmeasure.org",
          "value": 30,
          "code": "a"
        },
        "note": [
          {
            "text": "サバ食後３時間ほどで全身に発疹と腹痛あり"
          }
        ]
      }
    },
    {
      "fullUrl": "urn:uuid:caaa4e23-79bd-4cfc-9d56-22425f792372",
      "resource": {
        "resourceType": "AllergyIntolerance",
        "id": "alg1ReferralExample02Inline",
        "meta": {
          "profile": [
            "http://jpfhir.jp/fhir/core/StructureDefinition/JP_AllergyIntolerance",
            "http://jpfhir.jp/fhir/eClinicalSummary/StructureDefinition/JP_AllergyIntolerance_eClinicalSummary"
          ]
        },
        "identifier": [
          {
            "system": "http://jpfhir.jp/fhir/core/IdSystem/resourceInstance-identifier",
            "value": "102934701"
          }
        ],
        "clinicalStatus": {
          "coding": [
            {
              "code": "active",
              "system": "http://terminology.hl7.org/CodeSystem/allergyintolerance-clinical"
            }
          ]
        },
        "type": "allergy",
        "category": [
          "food"
        ],
        "criticality": "unable-to-assess",
        "code": {
          "text": "キーウイ"
        },
        "patient": {
          "reference": "urn:uuid:1f2f6840-c8b5-4c2b-bbc7-012efa46ba32"
        },
        "encounter": {
          "reference": "urn:uuid:920888d0-2c14-49a9-a1c1-7091fa8ad53b"
        },
        "onsetAge": {
          "system": "http://unitsofmeasure.org",
          "value": 10,
          "code": "a"
        },
        "note": [
          {
            "text": "食べると口の周りが痺れる感じ"
          }
        ]
      }
    },
    {
      "fullUrl": "urn:uuid:114e24ca-5a92-4d35-a69f-b999f83976e9",
      "resource": {
        "resourceType": "Observation",
        "id": "psobsCommonExample01Inline",
        "meta": {
          "profile": [
            "http://jpfhir.jp/fhir/core/StructureDefinition/JP_Observation_Common"
          ]
        },
        "identifier": [
          {
            "system": "http://jpfhir.jp/fhir/core/IdSystem/resourceInstance-identifier",
            "value": "192837"
          }
        ],
        "status": "final",
        "category": [
          {
            "coding": [
              {
                "code": "exam",
                "system": "http://terminology.hl7.org/CodeSystem/observation-category",
                "display": "身体検査・観察"
              }
            ]
          }
        ],
        "code": {
          "text": "腹部所見"
        },
        "subject": {
          "reference": "urn:uuid:1f2f6840-c8b5-4c2b-bbc7-012efa46ba32"
        },
        "valueString": "上腹部圧痛あり、その他特に所見なし。"
      }
    },
    {
      "fullUrl": "urn:uuid:342f9708-cf98-4d36-9d5f-53c80f4bb269",
      "resource": {
        "resourceType": "DocumentReference",
        "id": "ccourseReferralExample01Inline",
        "meta": {
          "profile": [
            "http://jpfhir.jp/fhir/core/StructureDefinition/JP_DocumentReference",
            "http://jpfhir.jp/fhir/eClinicalSummary/StructureDefinition/JP_DocumentReference_eClinicalSummary"
          ]
        },
        "status": "current",
        "type": {
          "coding": [
            {
              "system": "http://loinc.org",
              "code": "11506-3",
              "display": "Progress note"
            }
          ]
        },
        "description": "臨床経過",
        "content": [
          {
            "attachment": {
              "contentType": "text/plain;charset=UTF-8",
              "data": ""
            }
          }
        ]
      }
    }
  ]
}
