{
  "resourceType": "Bundle",
  "id": "bundleReferralExample01",
  "meta": {
    "profile": [
      "http://jpfhir.jp/fhir/eReferral/StructureDefinition/JP_Bundle_eReferral"
    ]
  },
  "identifier": {
    "system": "http://jpfhir.jp/fhir/core/IdSystem/documentInstance-identifier",
    "value": "123456"
  },
  "type": "document",
  "timestamp": "2021-11-26T10:00:00+09:00",
  "entry": [
    {
      "fullUrl": "urn:uuid:e7a047bb-4b75-4c63-9c27-7d501740662c",
      "resource": {
        "resourceType": "Composition",
        "id": "compositionReferralExample01",
        "meta": {
          "profile": [
            "http://jpfhir.jp/fhir/eReferral/StructureDefinition/JP_Composition_eReferral"
          ]
        },
        "extension": [
          {
            "url": "http://hl7.org/fhir/StructureDefinition/composition-clinicaldocument-versionNumber",
            "valueString": "ARGcode"
          }
        ],
        "identifier": {
          "system": "http://jpfhir.jp/fhir/core/IdSystem/resourceInstance-identifier",
          "value": "ARGcode"
        },
        "status": "final",
        "type": {
          "coding": [
            {
              "code": "57133-1",
              "system": "http://jpfhir.jp/fhir/Common/CodeSystem/doc-typecodes",
              "display": "診療情報提供書"
            }
          ]
        },
        "category": [
          {
            "coding": [
              {
                "code": "57133-1",
                "system": "http://jpfhir.jp/fhir/Common/CodeSystem/doc-typecodes",
                "display": "診療情報提供書"
              }
            ]
          }
        ],
        "subject": {
          "reference": "urn:uuid:dbeca8c9-34af-46fa-b1d9-ebf0f3d0d690",
          "type": "Patient",
          "display": "患者リソースPatient"
        },
        "encounter": {
          "reference": "urn:uuid:549ab974-f0be-4942-9737-243316abb7bd",
          "type": "Encounter",
          "display": "受診Encounterリソース"
        },
        "date": "2020-08-21T12:12:20+09:00",
        "author": [
          {
            "reference": "urn:uuid:5d0bd161-915a-4998-ad08-3e05f11e1419",
            "type": "Practitioner",
            "display": "紹介状作成者PractitionerRoleリソース"
          },
          {
            "reference": "urn:uuid:53731a68-9c50-4fb4-95fc-827f0c9d891a",
            "type": "Organization",
            "display": "紹介状作成機関Organizationリソース"
          }
        ],
        "title": "診療情報提供書",
        "custodian": {
          "reference": "urn:uuid:53731a68-9c50-4fb4-95fc-827f0c9d891a",
          "type": "Organization",
          "display": "紹介状交付責任機関Organizationリソース"
        },
        "event": [
          {
            "code": [
              {
                "text": "診療情報提供書発行"
              }
            ],
            "period": {
              "start": "2020-08-21"
            }
          }
        ],
        "section": [
          {
            "title": "紹介先情報",
            "code": {
              "coding": [
                {
                  "code": "910",
                  "system": "http://jpfhir.jp/fhir/eReferral/CodeSystem/document-section",
                  "display": "紹介先情報セクション"
                }
              ]
            },
            "text": {
              "status": "additional",
              "div": "<div xmlns=\"http://www.w3.org/1999/xhtml\">東京第一テスト病院</div>"
            },
            "entry": [
              {
                "reference": "urn:uuid:da404863-0c6d-4767-8783-45a21e90023c",
                "type": "Organization",
                "display": "紹介先医療機関"
              },
              {
                "reference": "urn:uuid:9d205411-22d1-4284-aca8-5530bc5aa517",
                "type": "Organization",
                "display": "紹介先診療科"
              },
              {
                "reference": "urn:uuid:fffcfb4b-f9a4-4c1a-83de-92a63fa07456",
                "type": "Practitioner",
                "display": "紹介先医師"
              }
            ]
          },
          {
            "title": "紹介元情報",
            "code": {
              "coding": [
                {
                  "code": "920",
                  "system": "http://jpfhir.jp/fhir/eReferral/CodeSystem/document-section",
                  "display": "紹介元情報セクション"
                }
              ]
            },
            "text": {
              "status": "additional",
              "div": "<div xmlns=\"http://www.w3.org/1999/xhtml\">港診療所</div>"
            },
            "entry": [
              {
                "reference": "urn:uuid:53731a68-9c50-4fb4-95fc-827f0c9d891a",
                "type": "Organization",
                "display": "紹介元医療機関"
              },
              {
                "reference": "urn:uuid:b016b8e6-bbc9-4659-abef-57f9d2cb2149",
                "type": "Organization",
                "display": "紹介元診療科"
              },
              {
                "reference": "urn:uuid:5d0bd161-915a-4998-ad08-3e05f11e1419",
                "type": "Practitioner",
                "display": "紹介元医師"
              }
            ]
          },
          {
            "title": "構造情報",
            "code": {
              "coding": [
                {
                  "code": "300",
                  "system": "http://jpfhir.jp/fhir/eReferral/CodeSystem/document-section",
                  "display": "構造情報セクション"
                }
              ]
            },
            "section": [
              {
                "title": "紹介目的",
                "code": {
                  "coding": [
                    {
                      "code": "950",
                      "system": "http://jpfhir.jp/fhir/eReferral/CodeSystem/document-section",
                      "display": "紹介目的セクション"
                    }
                  ]
                },
                "text": {
                  "status": "additional",
                  "div": "<div xmlns=\"http://www.w3.org/1999/xhtml\">腹痛精査お願いします。</div>"
                },
                "entry": [
                  {
                    "reference": "urn:uuid:26cf5cc6-4df3-470a-a167-9aa9f11c361d",
                    "type": "Encounter",
                    "display": "紹介目的"
                  }
                ]
              },
              {
                "title": "傷病名・主訴",
                "code": {
                  "coding": [
                    {
                      "code": "340",
                      "system": "http://jpfhir.jp/fhir/eReferral/CodeSystem/document-section",
                      "display": "傷病名・主訴セクション"
                    }
                  ]
                },
                "text": {
                  "status": "additional",
                  "div": "<div xmlns=\"http://www.w3.org/1999/xhtml\">上腹部痛、腰痛</div>"
                },
                "entry": [
                  {
                    "reference": "urn:uuid:8bff0481-d4ea-4445-bfce-88c7c517283d",
                    "type": "Condition",
                    "display": "傷病名・主訴"
                  },
                  {
                    "reference": "urn:uuid:6f6348a1-e2d0-4028-82f8-9790d788ad66",
                    "type": "Condition",
                    "display": "傷病名・主訴"
                  }
                ]
              },
              {
                "title": "現病歴",
                "code": {
                  "coding": [
                    {
                      "code": "360",
                      "system": "http://jpfhir.jp/fhir/eReferral/CodeSystem/document-section",
                      "display": "現病歴セクション"
                    }
                  ]
                },
                "text": {
                  "status": "additional",
                  "div": "<div xmlns=\"http://www.w3.org/1999/xhtml\">２０２２年６月上旬から夜食後に時々上腹部痛があり、だんだんひどくなっている。他に目立った症状なし。</div>"
                },
                "entry": [
                  {
                    "reference": "urn:uuid:a0c85bc4-c76f-4c01-9353-a87fcf9ea57e",
                    "type": "Condition",
                    "display": "現病歴"
                  }
                ]
              },
              {
                "title": "既往歴",
                "code": {
                  "coding": [
                    {
                      "code": "370",
                      "system": "http://jpfhir.jp/fhir/eReferral/CodeSystem/document-section",
                      "display": "既往歴セクション"
                    }
                  ]
                },
                "text": {
                  "status": "additional",
                  "div": "<div xmlns=\"http://www.w3.org/1999/xhtml\">2018年　狭心症　２ヶ月治療で軽快。2019年　交通事故で左前腕骨折　３ヶ月ギプス固定。</div>"
                },
                "entry": [
                  {
                    "reference": "urn:uuid:17c424cd-1d34-4b5c-a97c-dee78ad767f0",
                    "type": "Condition",
                    "display": "既往歴"
                  },
                  {
                    "reference": "urn:uuid:b8144bb4-380d-4c97-abc2-4998b1267a16",
                    "type": "Condition",
                    "display": "既往歴"
                  }
                ]
              },
              {
                "title": "アレルギー・不耐性反応",
                "code": {
                  "coding": [
                    {
                      "code": "510",
                      "system": "http://jpfhir.jp/fhir/eReferral/CodeSystem/document-section",
                      "display": "アレルギー・不耐性反応セクション"
                    }
                  ]
                },
                "text": {
                  "status": "additional",
                  "div": "<div xmlns=\"http://www.w3.org/1999/xhtml\">サバ　キーウイ</div>"
                },
                "entry": [
                  {
                    "reference": "urn:uuid:6b6d4c95-33b9-4453-be4a-0deea813e05c",
                    "type": "AllergyIntolerance",
                    "display": "アレルギー・不耐性反応"
                  },
                  {
                    "reference": "urn:uuid:275cbfdd-b1f6-4307-bad5-c913fea670e8",
                    "type": "AllergyIntolerance",
                    "display": "アレルギー・不耐性反応"
                  }
                ]
              },
              {
                "title": "家族歴",
                "code": {
                  "coding": [
                    {
                      "code": "550",
                      "system": "http://jpfhir.jp/fhir/eReferral/CodeSystem/document-section",
                      "display": "家族歴セクション"
                    }
                  ]
                },
                "text": {
                  "status": "additional",
                  "div": "<div xmlns=\"http://www.w3.org/1999/xhtml\">母　胃がん</div>"
                }
              },
              {
                "title": "身体所見",
                "code": {
                  "coding": [
                    {
                      "code": "610",
                      "system": "http://jpfhir.jp/fhir/eReferral/CodeSystem/document-section",
                      "display": "身体所見セクション"
                    }
                  ]
                },
                "text": {
                  "status": "additional",
                  "div": "<div xmlns=\"http://www.w3.org/1999/xhtml\">腹部所見：上腹部圧痛あり、その他特に所見なし。</div>"
                },
                "entry": [
                  {
                    "reference": "urn:uuid:fc474c31-7894-459a-acb0-696ec621d8d1",
                    "type": "Observation",
                    "display": "身体所見"
                  }
                ]
              },
              {
                "title": "感染症情報",
                "code": {
                  "coding": [
                    {
                      "code": "520",
                      "system": "http://jpfhir.jp/fhir/eReferral/CodeSystem/document-section",
                      "display": "感染症情報セクション"
                    }
                  ]
                },
                "text": {
                  "status": "additional",
                  "div": "<div xmlns=\"http://www.w3.org/1999/xhtml\">特になし</div>"
                }
              },
              {
                "title": "臨床経過",
                "code": {
                  "coding": [
                    {
                      "code": "330",
                      "system": "http://jpfhir.jp/fhir/eReferral/CodeSystem/document-section",
                      "display": "臨床経過セクション"
                    }
                  ]
                },
                "text": {
                  "status": "additional",
                  "div": "<div xmlns=\"http://www.w3.org/1999/xhtml\">添付参照</div>"
                },
                "entry": [
                  {
                    "reference": "urn:uuid:3c0c11aa-805d-4f08-a12e-b66063a3376e",
                    "type": "DocumentReference",
                    "display": "臨床経過"
                  }
                ]
              }
            ]
          }
        ]
      }
    },
    {
      "fullUrl": "urn:uuid:dbeca8c9-34af-46fa-b1d9-ebf0f3d0d690",
      "resource": {
        "resourceType": "Patient",
        "id": "jppatientExample01",
        "meta": {
          "profile": [
            "http://jpfhir.jp/fhir/core/StructureDefinition/JP_Patient"
          ]
        },
        "identifier": [
          {
            "system": "urn:oid:1.2.392.200119.6.102.11234567890",
            "value": "12345"
          }
        ],
        "active": true,
        "name": [
          {
            "extension": [
              {
                "url": "http://hl7.org/fhir/StructureDefinition/iso21090-EN-representation",
                "valueCode": "IDE"
              }
            ],
            "use": "official",
            "text": "田中　太郎",
            "family": "田中",
            "given": [
              "太郎"
            ]
          },
          {
            "extension": [
              {
                "url": "http://hl7.org/fhir/StructureDefinition/iso21090-EN-representation",
                "valueCode": "SYL"
              }
            ],
            "use": "official",
            "text": "タナカ　タロウ",
            "family": "タナカ",
            "given": [
              "タロウ"
            ]
          }
        ],
        "telecom": [
          {
            "system": "phone",
            "value": "03-1234-5678",
            "use": "home"
          }
        ],
        "gender": "male",
        "birthDate": "1955-05-04",
        "address": [
          {
            "text": "神奈川県横浜市港区１－２－３",
            "postalCode": "123-4567",
            "country": "JP"
          }
        ]
      }
    },
    {
      "fullUrl": "urn:uuid:549ab974-f0be-4942-9737-243316abb7bd",
      "resource": {
        "resourceType": "Encounter",
        "id": "encounterReferralExample01",
        "meta": {
          "profile": [
            "http://jpfhir.jp/fhir/core/StructureDefinition/JP_Encounter",
            "http://jpfhir.jp/fhir/eClinicalSummary/StructureDefinition/JP_Encounter_eClinicalSummary"
          ]
        },
        "identifier": [
          {
            "system": "http://jpfhir.jp/fhir/core/IdSystem/resourceInstance-identifier",
            "value": "192844"
          }
        ],
        "status": "finished",
        "class": {
          "system": "http://terminology.hl7.org/CodeSystem/v3-ActCode",
          "code": "AMB",
          "display": "外来"
        },
        "classHistory": [
          {
            "class": {
              "system": "http://terminology.hl7.org/CodeSystem/v3-ActCode",
              "code": "AMB",
              "display": "外来"
            },
            "period": {
              "start": "2020-08-20"
            }
          }
        ]
      }
    },
    {
      "fullUrl": "urn:uuid:5d0bd161-915a-4998-ad08-3e05f11e1419",
      "resource": {
        "resourceType": "Practitioner",
        "id": "referralFromPractitionerExample01",
        "meta": {
          "profile": [
            "http://jpfhir.jp/fhir/core/StructureDefinition/JP_Practitioner",
            "http://jpfhir.jp/fhir/eClinicalSummary/StructureDefinition/JP_Practitioner_eClinicalSummary"
          ]
        },
        "name": [
          {
            "extension": [
              {
                "url": "http://hl7.org/fhir/StructureDefinition/iso21090-EN-representation",
                "valueCode": "IDE"
              }
            ],
            "use": "official",
            "text": "大河内　勘三郎",
            "family": "大河内",
            "given": [
              "勘三郎"
            ]
          },
          {
            "extension": [
              {
                "url": "http://hl7.org/fhir/StructureDefinition/iso21090-EN-representation",
                "valueCode": "SYL"
              }
            ],
            "use": "official",
            "text": "オオコウチ　カンザブロウ",
            "family": "オオコウチ",
            "given": [
              "カンザブロウ"
            ]
          }
        ]
      }
    },
    {
      "fullUrl": "urn:uuid:fffcfb4b-f9a4-4c1a-83de-92a63fa07456",
      "resource": {
        "resourceType": "Practitioner",
        "id": "referralToPractitionerExample01",
        "meta": {
          "profile": [
            "http://jpfhir.jp/fhir/core/StructureDefinition/JP_Practitioner",
            "http://jpfhir.jp/fhir/eClinicalSummary/StructureDefinition/JP_Practitioner_eClinicalSummary"
          ]
        },
        "name": [
          {
            "extension": [
              {
                "url": "http://hl7.org/fhir/StructureDefinition/iso21090-EN-representation",
                "valueCode": "IDE"
              }
            ],
            "use": "official",
            "text": "野口　英世丸",
            "family": "野口",
            "given": [
              "英世丸"
            ]
          },
          {
            "extension": [
              {
                "url": "http://hl7.org/fhir/StructureDefinition/iso21090-EN-representation",
                "valueCode": "SYL"
              }
            ],
            "use": "official",
            "text": "ノグチ　ヒデヨマル",
            "family": "ノグチ",
            "given": [
              "ヒデヨマル"
            ]
          }
        ]
      }
    },
    {
      "fullUrl": "urn:uuid:53731a68-9c50-4fb4-95fc-827f0c9d891a",
      "resource": {
        "resourceType": "Organization",
        "id": "referralFromOrganizaitonExample01",
        "meta": {
          "profile": [
            "http://jpfhir.jp/fhir/core/StructureDefinition/JP_Organization",
            "http://jpfhir.jp/fhir/eClinicalSummary/StructureDefinition/JP_Organization_eClinicalSummary_issuer"
          ]
        },
        "extension": [
          {
            "url": "http://jpfhir.jp/fhir/core/Extension/StructureDefinition/JP_Organization_PrefectureNo",
            "valueCoding": {
              "system": "urn:oid:1.2.392.100495.20.3.21",
              "code": "13"
            }
          },
          {
            "url": "http://jpfhir.jp/fhir/core/Extension/StructureDefinition/JP_Organization_InsuranceOrganizationCategory",
            "valueCoding": {
              "system": "urn:oid:1.2.392.100495.20.3.22",
              "code": "1"
            }
          },
          {
            "url": "http://jpfhir.jp/fhir/core/Extension/StructureDefinition/JP_Organization_InsuranceOrganizationNo",
            "valueIdentifier": {
              "system": "urn:oid:1.2.392.100495.20.3.23",
              "value": "9876543"
            }
          }
        ],
        "identifier": [
          {
            "system": "http://jpfhir.jp/fhir/core/IdSystem/insurance-medical-institution-no",
            "value": "1319876543"
          }
        ],
        "type": [
          {
            "coding": [
              {
                "system": "http://terminology.hl7.org/CodeSystem/organization-type",
                "code": "prov"
              }
            ]
          }
        ],
        "name": "港診療所",
        "telecom": [
          {
            "system": "phone",
            "value": "03-9876-5432"
          }
        ],
        "address": [
          {
            "text": "東京都港区新橋１−２−３",
            "postalCode": "106-9900",
            "country": "JP"
          }
        ]
      }
    },
    {
      "fullUrl": "urn:uuid:da404863-0c6d-4767-8783-45a21e90023c",
      "resource": {
        "resourceType": "Organization",
        "id": "referralToOrganizaitonExample01",
        "meta": {
          "profile": [
            "http://jpfhir.jp/fhir/core/StructureDefinition/JP_Organization",
            "http://jpfhir.jp/fhir/eClinicalSummary/StructureDefinition/JP_Organization_eClinicalSummary_issuer"
          ]
        },
        "extension": [
          {
            "url": "http://jpfhir.jp/fhir/core/Extension/StructureDefinition/JP_Organization_PrefectureNo",
            "valueCoding": {
              "system": "urn:oid:1.2.392.100495.20.3.21",
              "code": "13"
            }
          },
          {
            "url": "http://jpfhir.jp/fhir/core/Extension/StructureDefinition/JP_Organization_InsuranceOrganizationCategory",
            "valueCoding": {
              "system": "urn:oid:1.2.392.100495.20.3.22",
              "code": "1"
            }
          },
          {
            "url": "http://jpfhir.jp/fhir/core/Extension/StructureDefinition/JP_Organization_InsuranceOrganizationNo",
            "valueIdentifier": {
              "system": "urn:oid:1.2.392.100495.20.3.23",
              "value": "1234567"
            }
          }
        ],
        "identifier": [
          {
            "system": "http://jpfhir.jp/fhir/core/IdSystem/insurance-medical-institution-no",
            "value": "1311234567"
          }
        ],
        "type": [
          {
            "coding": [
              {
                "system": "http://terminology.hl7.org/CodeSystem/organization-type",
                "code": "prov"
              }
            ]
          }
        ],
        "name": "東京第一テスト病院",
        "telecom": [
          {
            "system": "phone",
            "value": "03-1234-5678"
          }
        ],
        "address": [
          {
            "text": "東京都文京区文京町１−２−３",
            "postalCode": "113-0001",
            "country": "JP"
          }
        ]
      }
    },
    {
      "fullUrl": "urn:uuid:9d205411-22d1-4284-aca8-5530bc5aa517",
      "resource": {
        "resourceType": "Organization",
        "id": "referralToOrganizaitonDeptExample01",
        "meta": {
          "profile": [
            "http://jpfhir.jp/fhir/core/StructureDefinition/JP_Organization",
            "http://jpfhir.jp/fhir/eClinicalSummary/StructureDefinition/JP_Organization_eClinicalSummary_departmentOfIssuer"
          ]
        },
        "type": [
          {
            "coding": [
              {
                "system": "http://terminology.hl7.org/CodeSystem/organization-type",
                "code": "dept"
              }
            ]
          },
          {
            "coding": [
              {
                "system": "urn:oid:1.2.392.100495.20.2.51",
                "code": "03"
              }
            ]
          }
        ],
        "name": "循環器内科",
        "partOf": {
          "reference": "urn:uuid:9d205411-22d1-4284-aca8-5530bc5aa517"
        }
      }
    },
    {
      "fullUrl": "urn:uuid:b016b8e6-bbc9-4659-abef-57f9d2cb2149",
      "resource": {
        "resourceType": "Organization",
        "id": "referralFromOrganizaitonDeptExample01",
        "meta": {
          "profile": [
            "http://jpfhir.jp/fhir/core/StructureDefinition/JP_Organization",
            "http://jpfhir.jp/fhir/eClinicalSummary/StructureDefinition/JP_Organization_eClinicalSummary_departmentOfIssuer"
          ]
        },
        "type": [
          {
            "coding": [
              {
                "system": "http://terminology.hl7.org/CodeSystem/organization-type",
                "code": "dept"
              }
            ]
          },
          {
            "coding": [
              {
                "system": "urn:oid:1.2.392.100495.20.2.51",
                "code": "11"
              }
            ]
          }
        ],
        "name": "眼科",
        "partOf": {
          "reference": "urn:uuid:b016b8e6-bbc9-4659-abef-57f9d2cb2149"
        }
      }
    },
    {
      "fullUrl": "urn:uuid:26cf5cc6-4df3-470a-a167-9aa9f11c361d",
      "resource": {
        "resourceType": "Encounter",
        "id": "purposeReferralExample01",
        "meta": {
          "profile": [
            "http://jpfhir.jp/fhir/core/StructureDefinition/JP_Encounter",
            "http://jpfhir.jp/fhir/eClinicalSummary/StructureDefinition/JP_Encounter_eClinicalSummary"
          ]
        },
        "identifier": [
          {
            "system": "http://jpfhir.jp/fhir/core/IdSystem/resourceInstance-identifier",
            "value": "192837"
          }
        ],
        "status": "finished",
        "class": {
          "system": "http://terminology.hl7.org/CodeSystem/v3-ActCode",
          "code": "AMB",
          "display": "外来"
        },
        "reasonCode": [
          {
            "text": "腹痛精査お願いします。"
          }
        ]
      }
    },
    {
      "fullUrl": "urn:uuid:8bff0481-d4ea-4445-bfce-88c7c517283d",
      "resource": {
        "resourceType": "Condition",
        "id": "cc1ReferralExample01",
        "meta": {
          "profile": [
            "http://jpfhir.jp/fhir/core/StructureDefinition/JP_Condition",
            "http://jpfhir.jp/fhir/eClinicalSummary/StructureDefinition/JP_Condition_eClinicalSummary"
          ]
        },
        "identifier": [
          {
            "system": "http://jpfhir.jp/fhir/core/IdSystem/resourceInstance-identifier",
            "value": "192837-01"
          }
        ],
        "clinicalStatus": {
          "coding": [
            {
              "code": "active",
              "system": "http://terminology.hl7.org/CodeSystem/condition-clinical"
            }
          ]
        },
        "category": [
          {
            "coding": [
              {
                "code": "problem-list-item",
                "system": "http://terminology.hl7.org/CodeSystem/condition-category"
              }
            ]
          }
        ],
        "code": {
          "text": "上腹部痛"
        },
        "subject": {
          "reference": "urn:uuid:dbeca8c9-34af-46fa-b1d9-ebf0f3d0d690"
        },
        "onsetDateTime": "2022-06-09"
      }
    },
    {
      "fullUrl": "urn:uuid:6f6348a1-e2d0-4028-82f8-9790d788ad66",
      "resource": {
        "resourceType": "Condition",
        "id": "cc2ReferralExample01",
        "meta": {
          "profile": [
            "http://jpfhir.jp/fhir/core/StructureDefinition/JP_Condition",
            "http://jpfhir.jp/fhir/eClinicalSummary/StructureDefinition/JP_Condition_eClinicalSummary"
          ]
        },
        "identifier": [
          {
            "system": "http://jpfhir.jp/fhir/core/IdSystem/resourceInstance-identifier",
            "value": "192837-02"
          }
        ],
        "clinicalStatus": {
          "coding": [
            {
              "code": "active",
              "system": "http://terminology.hl7.org/CodeSystem/condition-clinical"
            }
          ]
        },
        "category": [
          {
            "coding": [
              {
                "code": "problem-list-item",
                "system": "http://terminology.hl7.org/CodeSystem/condition-category"
              }
            ]
          }
        ],
        "code": {
          "text": "腰痛"
        },
        "subject": {
          "reference": "urn:uuid:dbeca8c9-34af-46fa-b1d9-ebf0f3d0d690"
        },
        "onsetDateTime": "2022-05"
      }
    },
    {
      "fullUrl": "urn:uuid:a0c85bc4-c76f-4c01-9353-a87fcf9ea57e",
      "resource": {
        "resourceType": "Condition",
        "id": "piReferralExample01",
        "meta": {
          "profile": [
            "http://jpfhir.jp/fhir/core/StructureDefinition/JP_Condition",
            "http://jpfhir.jp/fhir/eClinicalSummary/StructureDefinition/JP_Condition_eClinicalSummary"
          ]
        },
        "identifier": [
          {
            "system": "http://jpfhir.jp/fhir/core/IdSystem/resourceInstance-identifier",
            "value": "192838"
          }
        ],
        "clinicalStatus": {
          "coding": [
            {
              "code": "active",
              "system": "http://terminology.hl7.org/CodeSystem/condition-clinical"
            }
          ]
        },
        "category": [
          {
            "coding": [
              {
                "code": "problem-list-item",
                "system": "http://terminology.hl7.org/CodeSystem/condition-category"
              }
            ]
          }
        ],
        "code": {
          "text": "上腹部痛"
        },
        "subject": {
          "reference": "urn:uuid:dbeca8c9-34af-46fa-b1d9-ebf0f3d0d690"
        },
        "note": [
          {
            "text": "２０２２年６月上旬から夜食後に時々上腹部痛があり、だんだんひどくなっている。他に目立った症状なし。"
          }
        ]
      }
    },
    {
      "fullUrl": "urn:uuid:17c424cd-1d34-4b5c-a97c-dee78ad767f0",
      "resource": {
        "resourceType": "Condition",
        "id": "ph1ReferralExample01",
        "meta": {
          "profile": [
            "http://jpfhir.jp/fhir/core/StructureDefinition/JP_Condition",
            "http://jpfhir.jp/fhir/eClinicalSummary/StructureDefinition/JP_Condition_eClinicalSummary"
          ]
        },
        "identifier": [
          {
            "system": "http://jpfhir.jp/fhir/core/IdSystem/resourceInstance-identifier",
            "value": "192839-01"
          }
        ],
        "clinicalStatus": {
          "coding": [
            {
              "code": "active",
              "system": "http://terminology.hl7.org/CodeSystem/condition-clinical"
            }
          ]
        },
        "category": [
          {
            "coding": [
              {
                "code": "problem-list-item",
                "system": "http://terminology.hl7.org/CodeSystem/condition-category"
              }
            ]
          }
        ],
        "code": {
          "text": "狭心症"
        },
        "subject": {
          "reference": "urn:uuid:dbeca8c9-34af-46fa-b1d9-ebf0f3d0d690"
        },
        "onsetDateTime": "2018",
        "note": [
          {
            "text": "2018年　狭心症　２ヶ月治療で軽快。"
          }
        ]
      }
    },
    {
      "fullUrl": "urn:uuid:b8144bb4-380d-4c97-abc2-4998b1267a16",
      "resource": {
        "resourceType": "Condition",
        "id": "ph2ReferralExample01",
        "meta": {
          "profile": [
            "http://jpfhir.jp/fhir/core/StructureDefinition/JP_Condition",
            "http://jpfhir.jp/fhir/eClinicalSummary/StructureDefinition/JP_Condition_eClinicalSummary"
          ]
        },
        "identifier": [
          {
            "system": "http://jpfhir.jp/fhir/core/IdSystem/resourceInstance-identifier",
            "value": "192839-02"
          }
        ],
        "clinicalStatus": {
          "coding": [
            {
              "code": "active",
              "system": "http://terminology.hl7.org/CodeSystem/condition-clinical"
            }
          ]
        },
        "category": [
          {
            "coding": [
              {
                "code": "problem-list-item",
                "system": "http://terminology.hl7.org/CodeSystem/condition-category"
              }
            ]
          }
        ],
        "code": {
          "text": "左前腕骨折"
        },
        "subject": {
          "reference": "urn:uuid:dbeca8c9-34af-46fa-b1d9-ebf0f3d0d690"
        },
        "onsetDateTime": "2019",
        "note": [
          {
            "text": "交通事故で左前腕骨折　３ヶ月ギプス固定。"
          }
        ]
      }
    },
    {
      "fullUrl": "urn:uuid:6b6d4c95-33b9-4453-be4a-0deea813e05c",
      "resource": {
        "resourceType": "AllergyIntolerance",
        "id": "alg1ReferralExample01",
        "meta": {
          "profile": [
            "http://jpfhir.jp/fhir/core/StructureDefinition/JP_AllergyIntolerance",
            "http://jpfhir.jp/fhir/eClinicalSummary/StructureDefinition/JP_AllergyIntolerance_eClinicalSummary"
          ]
        },
        "identifier": [
          {
            "system": "http://jpfhir.jp/fhir/core/IdSystem/resourceInstance-identifier",
            "value": "102934701"
          }
        ],
        "clinicalStatus": {
          "coding": [
            {
              "code": "active",
              "system": "http://terminology.hl7.org/CodeSystem/allergyintolerance-clinical"
            }
          ]
        },
        "type": "allergy",
        "category": [
          "food"
        ],
        "criticality": "unable-to-assess",
        "code": {
          "text": "サバ"
        },
        "patient": {
          "reference": "urn:uuid:dbeca8c9-34af-46fa-b1d9-ebf0f3d0d690"
        },
        "encounter": {
          "reference": "urn:uuid:549ab974-f0be-4942-9737-243316abb7bd"
        },
        "onsetAge": {
          "system": "http://unitsofmeasure.org",
          "value": 30,
          "code": "a"
        },
        "note": [
          {
            "text": "サバ食後３時間ほどで全身に発疹と腹痛あり"
          }
        ]
      }
    },
    {
      "fullUrl": "urn:uuid:275cbfdd-b1f6-4307-bad5-c913fea670e8",
      "resource": {
        "resourceType": "AllergyIntolerance",
        "id": "alg1ReferralExample02",
        "meta": {
          "profile": [
            "http://jpfhir.jp/fhir/core/StructureDefinition/JP_AllergyIntolerance",
            "http://jpfhir.jp/fhir/eClinicalSummary/StructureDefinition/JP_AllergyIntolerance_eClinicalSummary"
          ]
        },
        "identifier": [
          {
            "system": "http://jpfhir.jp/fhir/core/IdSystem/resourceInstance-identifier",
            "value": "102934701"
          }
        ],
        "clinicalStatus": {
          "coding": [
            {
              "code": "active",
              "system": "http://terminology.hl7.org/CodeSystem/allergyintolerance-clinical"
            }
          ]
        },
        "type": "allergy",
        "category": [
          "food"
        ],
        "criticality": "unable-to-assess",
        "code": {
          "text": "キーウイ"
        },
        "patient": {
          "reference": "urn:uuid:dbeca8c9-34af-46fa-b1d9-ebf0f3d0d690"
        },
        "encounter": {
          "reference": "urn:uuid:549ab974-f0be-4942-9737-243316abb7bd"
        },
        "onsetAge": {
          "system": "http://unitsofmeasure.org",
          "value": 10,
          "code": "a"
        },
        "note": [
          {
            "text": "食べると口の周りが痺れる感じ"
          }
        ]
      }
    },
    {
      "fullUrl": "urn:uuid:fc474c31-7894-459a-acb0-696ec621d8d1",
      "resource": {
        "resourceType": "Observation",
        "id": "psobsCommonExample01",
        "meta": {
          "profile": [
            "http://jpfhir.jp/fhir/core/StructureDefinition/JP_Observation_Common"
          ]
        },
        "identifier": [
          {
            "system": "http://jpfhir.jp/fhir/core/IdSystem/resourceInstance-identifier",
            "value": "192837"
          }
        ],
        "status": "final",
        "category": [
          {
            "coding": [
              {
                "code": "exam",
                "system": "http://terminology.hl7.org/CodeSystem/observation-category",
                "display": "身体検査・観察"
              }
            ]
          }
        ],
        "code": {
          "text": "腹部所見"
        },
        "subject": {
          "reference": "urn:uuid:dbeca8c9-34af-46fa-b1d9-ebf0f3d0d690"
        },
        "valueString": "上腹部圧痛あり、その他特に所見なし。"
      }
    },
    {
      "fullUrl": "urn:uuid:3c0c11aa-805d-4f08-a12e-b66063a3376e",
      "resource": {
        "resourceType": "DocumentReference",
        "id": "ccourseReferralExample01",
        "meta": {
          "profile": [
            "http://jpfhir.jp/fhir/core/StructureDefinition/JP_DocumentReference",
            "http://jpfhir.jp/fhir/eClinicalSummary/StructureDefinition/JP_DocumentReference_eClinicalSummary"
          ]
        },
        "status": "current",
        "type": {
          "coding": [
            {
              "system": "http://loinc.org",
              "code": "11506-3",
              "display": "Progress note"
            }
          ]
        },
        "description": "臨床経過",
        "content": [
          {
            "attachment": {
              "contentType": "text/plain;charset=UTF-8",
              "data": ""
            }
          }
        ]
      }
    }
  ]
}
